ID	age	sex	investigator	location	shockamplitude	roomtemperature	counterbalance	opponent	trialnr	blink	blinktime	click_check	shock_check	shock_count	shock_ratio	current_time	coreTrialStart	RT	accuracy	marker	iti	ind_time	cond_threat_count	shock_threat_count	startle
41	26	female	8	Probraum	5.5	20	2	phonemanbw	ex	black.PNG	60	0	0	0	0	03/22/22:12:51:51.590708	4113.906	0	0	onset	3	0.5	0	0	dot_startle
41	26	female	8	Probraum	5.5	20	2	phonemanbw	ex	black.PNG	60	0	0	0	0	03/22/22:12:51:51.705400	4114.031	0	0	anticipation	3	0.5	0	0	dot_startle
41	26	female	8	Probraum	5.5	20	2	phonemanbw	ex	black.PNG	60	0	0	0	0	03/22/22:12:51:51.705400	4114.031	0	0	anticipation	3	0.5	0	0	dot_startle
41	26	female	8	Probraum	5.5	20	2	phonemanbw	ex	black.PNG	60	0	0	0	0	03/22/22:12:51:53.208381	4115.531	0	0	dotstartle	3	0.5	0	0	dot_startle
41	26	female	8	Probraum	5.5	20	2	phonemanbw	ex	black.PNG	60	0	0	0	0	03/22/22:12:51:53.420814	4115.75	0	0	anticipation	3	0.5	0	0	dot_startle
41	26	female	8	Probraum	5.5	20	2	phonemanbw	ex	black.PNG	60	0	0	0	0	03/22/22:12:51:53.536506	4115.859	0	0	anticipation	3	0.5	0	0	dot_startle
41	26	female	8	Probraum	5.5	20	2	phonemanbw	ex	black.PNG	60	0	0	0	0	03/22/22:12:51:53.650200	4115.968	0	0	anticipation	3	0.5	0	0	dot_startle
41	26	female	8	Probraum	5.5	20	2	phonemanbw	ex	black.PNG	60	0	0	0	0	03/22/22:12:51:53.764893	4116.093	0	0	anticipation	3	0.5	0	0	dot_startle
41	26	female	8	Probraum	5.5	20	2	phonemanbw	ex	black.PNG	60	0	0	0	0	03/22/22:12:51:53.878590	4116.203	0	0	anticipation	3	0.5	0	0	dot_startle
41	26	female	8	Probraum	5.5	20	2	phonemanbw	ex	black.PNG	60	0	0	0	0	03/22/22:12:51:53.993284	4116.312	0	0	anticipation	3	0.5	0	0	dot_startle
41	26	female	8	Probraum	5.5	20	2	phonemanbw	ex	black.PNG	60	0	0	0	0	03/22/22:12:51:54.103988	4116.421	0	0	anticipation	3	0.5	0	0	dot_startle
41	26	female	8	Probraum	5.5	20	2	phonemanbw	ex	black.PNG	60	0	0	0	0	03/22/22:12:51:54.218681	4116.546	0	0	anticipation	3	0.5	0	0	dot_startle
41	26	female	8	Probraum	5.5	20	2	phonemanbw	ex	black.PNG	60	0	0	0	0	03/22/22:12:51:54.333373	4116.656	0	0	anticipation	3	0.5	0	0	dot_startle
41	26	female	8	Probraum	5.5	20	2	phonemanbw	ex	black.PNG	60	0	0	0	0	03/22/22:12:51:54.448067	4116.765	0	0	anticipation	3	0.5	0	0	dot_startle
41	26	female	8	Probraum	5.5	20	2	phonemanbw	ex	black.PNG	60	0	0	0	0	03/22/22:12:51:54.561763	4116.89	0	0	anticipation	3	0.5	0	0	dot_startle
41	26	female	8	Probraum	5.5	20	2	phonemanbw	ex	black.PNG	60	0	0	0	0	03/22/22:12:51:54.676458	4117.0	0	0	anticipation	3	0.5	0	0	dot_startle
41	26	female	8	Probraum	5.5	20	2	phonemanbw	ex	black.PNG	60	0	0	0	0	03/22/22:12:51:54.791151	4117.109	0	0	anticipation	3	0.5	0	0	dot_startle
41	26	female	8	Probraum	5.5	20	2	phonemanbw	ex	black.PNG	60	0	0	0	0	03/22/22:12:51:54.904845	4117.234	0	0	anticipation	3	0.5	0	0	dot_startle
41	26	female	8	Probraum	5.5	20	2	phonemanbw	ex	black.PNG	60	0	0	0	0	03/22/22:12:51:55.020538	4117.343	0	0	anticipation	3	0.5	0	0	dot_startle
41	26	female	8	Probraum	5.5	20	2	phonemanbw	ex	black.PNG	60	0	0	0	0	03/22/22:12:51:55.134234	4117.453	0	0	anticipation	3	0.5	0	0	dot_startle
41	26	female	8	Probraum	5.5	20	2	phonemanbw	ex	black.PNG	60	0	0	0	0	03/22/22:12:51:55.247928	4117.578	0	0	anticipation	3	0.5	0	0	dot_startle
41	26	female	8	Probraum	5.5	20	2	phonemanbw	ex	black.PNG	60	0	0	0	0	03/22/22:12:51:55.362621	4117.687	0	0	anticipation	3	0.5	0	0	dot_startle
41	26	female	8	Probraum	5.5	20	2	phonemanbw	ex	black.PNG	60	0	0	0	0	03/22/22:12:51:55.477315	4117.796	0	0	anticipation	3	0.5	0	0	dot_startle
41	26	female	8	Probraum	5.5	20	2	phonemanbw	ex	black.PNG	60	0	0	0	0	03/22/22:12:51:55.591011	4117.906	0	0	anticipation	3	0.5	0	0	dot_startle
41	26	female	8	Probraum	5.5	20	2	phonemanbw	ex	black.PNG	60	0	0	0	0	03/22/22:12:51:55.705704	4118.031	0	0	anticipation	3	0.5	0	0	dot_startle
41	26	female	8	Probraum	5.5	20	2	phonemanbw	ex	black.PNG	60	0	0	0	0	03/22/22:12:51:55.819400	4118.14	0	0	anticipation	3	0.5	0	0	dot_startle
41	26	female	8	Probraum	5.5	20	2	phonemanbw	ex	black.PNG	60	0	0	0	0	03/22/22:12:51:55.933097	4118.25	0	0	anticipation	3	0.5	0	0	dot_startle
41	26	female	8	Probraum	5.5	20	2	phonemanbw	ex	black.PNG	60	0	0	0	0	03/22/22:12:51:56.047790	4118.375	0	0	anticipation	3	0.5	0	0	dot_startle
41	26	female	8	Probraum	5.5	20	2	phonemanbw	ex	black.PNG	60	0	0	0	0	03/22/22:12:51:56.161485	4118.484	0	0	anticipation	3	0.5	0	0	dot_startle
41	26	female	8	Probraum	5.5	20	2	phonemanbw	ex	black.PNG	60	0	0	0	0	03/22/22:12:51:56.275182	4118.593	0	0	anticipation	3	0.5	0	0	dot_startle
41	26	female	8	Probraum	5.5	20	2	phonemanbw	ex	black.PNG	60	0	0	0	0	03/22/22:12:51:56.389874	4118.718	0	0	anticipation	3	0.5	0	0	dot_startle
41	26	female	8	Probraum	5.5	20	2	phonemanbw	ex	black.PNG	60	0	0	0	0	03/22/22:12:51:56.503570	4118.828	0	0	anticipation	3	0.5	0	0	dot_startle
41	26	female	8	Probraum	5.5	20	2	phonemanbw	ex	black.PNG	60	0	0	0	0	03/22/22:12:51:56.618265	4118.937	0	0	anticipation	3	0.5	0	0	dot_startle
41	26	female	8	Probraum	5.5	20	2	phonemanbw	ex	black.PNG	60	0	0	0	0	03/22/22:12:51:56.732957	4119.062	0	0	anticipation	3	0.5	0	0	dot_startle
41	26	female	8	Probraum	5.5	20	2	phonemanbw	ex	black.PNG	60	0	0	0	0	03/22/22:12:51:56.847652	4119.171	0	0	anticipation	3	0.5	0	0	dot_startle
41	26	female	8	Probraum	5.5	20	2	phonemanbw	ex	black.PNG	60	0	0	0	0	03/22/22:12:51:56.961348	4119.281	0	0	anticipation	3	0.5	0	0	dot_startle
41	26	female	8	Probraum	5.5	20	2	phonemanbw	ex	black.PNG	60	0	0	0	0	03/22/22:12:51:57.075042	4119.39	0	0	anticipation	3	0.5	0	0	dot_startle
41	26	female	8	Probraum	5.5	20	2	phonemanbw	ex	black.PNG	60	0	0	0	0	03/22/22:12:51:57.186745	4119.515	0	0	anticipation	3	0.5	0	0	dot_startle
41	26	female	8	Probraum	5.5	20	2	phonemanbw	ex	black.PNG	60	0	0	0	0	03/22/22:12:51:57.300441	4119.625	0	0	anticipation	3	0.5	0	0	dot_startle
41	26	female	8	Probraum	5.5	20	2	phonemanbw	ex	black.PNG	60	0	0	0	0	03/22/22:12:51:57.415135	4119.734	0	0	anticipation	3	0.5	0	0	dot_startle
41	26	female	8	Probraum	5.5	20	2	phonemanbw	ex	black.PNG	60	0	0	0	0	03/22/22:12:51:57.529828	4119.859	0	0	anticipation	3	0.5	0	0	dot_startle
41	26	female	8	Probraum	5.5	20	2	phonemanbw	ex	black.PNG	60	0	0	0	0	03/22/22:12:51:57.643559	4119.968	0	0	anticipation	3	0.5	0	0	dot_startle
41	26	female	8	Probraum	5.5	20	2	phonemanbw	ex	black.PNG	60	0	0	0	0	03/22/22:12:51:57.757219	4120.078	0	0	anticipation	3	0.5	0	0	dot_startle
41	26	female	8	Probraum	5.5	20	2	phonemanbw	ex	black.PNG	60	0	0	0	0	03/22/22:12:51:57.888867	4120.218	0	0	anticipation	3	0.5	0	0	dot_startle
41	26	female	8	Probraum	5.5	20	2	phonemanbw	ex	black.PNG	60	0	0	0	0	03/22/22:12:51:58.003561	4120.328	0	0	anticipation	3	0.5	0	0	dot_startle
41	26	female	8	Probraum	5.5	20	2	phonemanbw	ex	black.PNG	60	0	0	0	0	03/22/22:12:51:58.116260	4120.437	0	0	anticipation	3	0.5	0	0	dot_startle
41	26	female	8	Probraum	5.5	20	2	phonemanbw	ex	black.PNG	60	0	0	0	0	03/22/22:12:51:58.230952	4120.546	0	0	anticipation	3	0.5	0	0	dot_startle
41	26	female	8	Probraum	5.5	20	2	phonemanbw	ex	black.PNG	60	0	0	0	0	03/22/22:12:51:58.345645	4120.671	0	0	anticipation	3	0.5	0	0	dot_startle
41	26	female	8	Probraum	5.5	20	2	phonemanbw	ex	black.PNG	60	0	0	0	0	03/22/22:12:51:58.459341	4120.781	0	0	anticipation	3	0.5	0	0	dot_startle
41	26	female	8	Probraum	5.5	20	2	phonemanbw	ex	black.PNG	60	0	0	0	0	03/22/22:12:51:58.574036	4120.89	0	0	anticipation	3	0.5	0	0	dot_startle
41	26	female	8	Probraum	5.5	20	2	phonemanbw	ex	black.PNG	60	0	0	0	0	03/22/22:12:51:58.687731	4121.015	0	0	anticipation	3	0.5	0	0	dot_startle
41	26	female	8	Probraum	5.5	20	2	phonemanbw	ex	black.PNG	60	0	0	0	0	03/22/22:12:51:58.802427	4121.125	0	0	anticipation	3	0.5	0	0	dot_startle
41	26	female	8	Probraum	5.5	20	2	phonemanbw	ex	black.PNG	60	0	0	0	0	03/22/22:12:51:58.916120	4121.234	0	0	anticipation	3	0.5	0	0	dot_startle
41	26	female	8	Probraum	5.5	20	2	phonemanbw	ex	black.PNG	60	0	0	0	0	03/22/22:12:51:59.029816	4121.359	0	0	anticipation	3	0.5	0	0	dot_startle
41	26	female	8	Probraum	5.5	20	2	phonemanbw	ex	black.PNG	60	0	0	0	0	03/22/22:12:51:59.140520	4121.468	0	0	anticipation	3	0.5	0	0	dot_startle
41	26	female	8	Probraum	5.5	20	2	phonemanbw	ex	black.PNG	60	0	0	0	0	03/22/22:12:51:59.254217	4121.578	0	0	anticipation	3	0.5	0	0	dot_startle
41	26	female	8	Probraum	5.5	20	2	phonemanbw	ex	black.PNG	60	0	0	0	0	03/22/22:12:51:59.257209	4121.578	0	0	guy	3	0.5	0	0	dot_startle
41	26	female	8	Probraum	5.5	20	2	phonemanbw	ex	black.PNG	60	0	0	0	0	03/22/22:12:51:59.273165	4121.593	0	0	guy	3	0.5	0	0	dot_startle
41	26	female	8	Probraum	5.5	20	2	phonemanbw	ex	black.PNG	60	0	0	0	0	03/22/22:12:51:59.289123	4121.609	0	0	guy	3	0.5	0	0	dot_startle
41	26	female	8	Probraum	5.5	20	2	phonemanbw	ex	black.PNG	60	0	0	0	0	03/22/22:12:51:59.306077	4121.625	0	0	guy	3	0.5	0	0	dot_startle
41	26	female	8	Probraum	5.5	20	2	phonemanbw	ex	black.PNG	60	0	0	0	0	03/22/22:12:51:59.323032	4121.64	0	0	guy	3	0.5	0	0	dot_startle
41	26	female	8	Probraum	5.5	20	2	phonemanbw	ex	black.PNG	60	0	0	0	0	03/22/22:12:51:59.339987	4121.656	0	0	guy	3	0.5	0	0	dot_startle
41	26	female	8	Probraum	5.5	20	2	phonemanbw	ex	black.PNG	60	0	0	0	0	03/22/22:12:51:59.356942	4121.687	0	0	guy	3	0.5	0	0	dot_startle
41	26	female	8	Probraum	5.5	20	2	phonemanbw	ex	black.PNG	60	0	0	0	0	03/22/22:12:51:59.373901	4121.703	0	0	guy	3	0.5	0	0	dot_startle
41	26	female	8	Probraum	5.5	20	2	phonemanbw	ex	black.PNG	60	0	0	0	0	03/22/22:12:51:59.389858	4121.718	0	0	guy	3	0.5	0	0	dot_startle
41	26	female	8	Probraum	5.5	20	2	phonemanbw	ex	black.PNG	60	0	0	0	0	03/22/22:12:51:59.406817	4121.734	0	0	guy	3	0.5	0	0	dot_startle
41	26	female	8	Probraum	5.5	20	2	phonemanbw	ex	black.PNG	60	0	0	0	0	03/22/22:12:51:59.423773	4121.75	0	0	guy	3	0.5	0	0	dot_startle
41	26	female	8	Probraum	5.5	20	2	phonemanbw	ex	black.PNG	60	0	0	0	0	03/22/22:12:51:59.439729	4121.765	0	0	guy	3	0.5	0	0	dot_startle
41	26	female	8	Probraum	5.5	20	2	phonemanbw	ex	black.PNG	60	0	0	0	0	03/22/22:12:51:59.456684	4121.781	0	0	guy	3	0.5	0	0	dot_startle
41	26	female	8	Probraum	5.5	20	2	phonemanbw	ex	black.PNG	60	0	0	0	0	03/22/22:12:51:59.473638	4121.796	0	0	guy	3	0.5	0	0	dot_startle
41	26	female	8	Probraum	5.5	20	2	phonemanbw	ex	black.PNG	60	0	0	0	0	03/22/22:12:51:59.490594	4121.812	0	0	guy	3	0.5	0	0	dot_startle
41	26	female	8	Probraum	5.5	20	2	phonemanbw	ex	black.PNG	60	0	0	0	0	03/22/22:12:51:59.506553	4121.828	0	0	guy	3	0.5	0	0	dot_startle
41	26	female	8	Probraum	5.5	20	2	phonemanbw	ex	black.PNG	60	0	0	0	0	03/22/22:12:51:59.523513	4121.843	0	0	guy	3	0.5	0	0	dot_startle
41	26	female	8	Probraum	5.5	20	2	phonemanbw	ex	black.PNG	60	0	0	0	0	03/22/22:12:51:59.540466	4121.859	0	0	guy	3	0.5	0	0	dot_startle
41	26	female	8	Probraum	5.5	20	2	phonemanbw	ex	black.PNG	60	0	0	0	0	03/22/22:12:51:59.556423	4121.875	0	0	guy	3	0.5	0	0	dot_startle
41	26	female	8	Probraum	5.5	20	2	phonemanbw	ex	black.PNG	60	0	0	0	0	03/22/22:12:51:59.573379	4121.89	0	0	guy	3	0.5	0	0	dot_startle
41	26	female	8	Probraum	5.5	20	2	phonemanbw	ex	black.PNG	60	0	0	0	0	03/22/22:12:51:59.590332	4121.906	0	0	guy	3	0.5	0	0	dot_startle
41	26	female	8	Probraum	5.5	20	2	phonemanbw	ex	black.PNG	60	0	0	0	0	03/22/22:12:51:59.607287	4121.937	0	0	guy	3	0.5	0	0	dot_startle
41	26	female	8	Probraum	5.5	20	2	phonemanbw	ex	black.PNG	60	0	0	0	0	03/22/22:12:51:59.623245	4121.953	0	0	guy	3	0.5	0	0	dot_startle
41	26	female	8	Probraum	5.5	20	2	phonemanbw	ex	black.PNG	60	0	0	0	0	03/22/22:12:51:59.640200	4121.968	0	0	guy	3	0.5	0	0	dot_startle
41	26	female	8	Probraum	5.5	20	2	phonemanbw	ex	black.PNG	60	0	0	0	0	03/22/22:12:51:59.657205	4121.984	0	0	guy	3	0.5	0	0	dot_startle
41	26	female	8	Probraum	5.5	20	2	phonemanbw	ex	black.PNG	60	0	0	0	0	03/22/22:12:51:59.673113	4122.0	0	0	guy	3	0.5	0	0	dot_startle
41	26	female	8	Probraum	5.5	20	2	phonemanbw	ex	black.PNG	60	0	0	0	0	03/22/22:12:51:59.690066	4122.015	0	0	guy	3	0.5	0	0	dot_startle
41	26	female	8	Probraum	5.5	20	2	phonemanbw	ex	black.PNG	60	0	0	0	0	03/22/22:12:51:59.707276	4122.031	0	0	guy	3	0.5	0	0	dot_startle
41	26	female	8	Probraum	5.5	20	2	phonemanbw	ex	black.PNG	60	0	0	0	0	03/22/22:12:51:59.723978	4122.046	0	0	guy	3	0.5	0	0	dot_startle
41	26	female	8	Probraum	5.5	20	2	phonemanbw	ex	black.PNG	60	0	0	0	0	03/22/22:12:51:59.739935	4122.062	0	0	guy	3	0.5	0	0	dot_startle
41	26	female	8	Probraum	5.5	20	2	phonemanbw	ex	black.PNG	60	0	0	0	0	03/22/22:12:51:59.756888	4122.078	0	0	guy	3	0.5	0	0	dot_startle
41	26	female	8	Probraum	5.5	20	2	phonemanbw	ex	black.PNG	60	0	0	0	0	03/22/22:12:51:59.773844	4122.093	0	0	guy	3	0.5	0	0	dot_startle
41	26	female	8	Probraum	5.5	20	2	phonemanbw	ex	black.PNG	60	0	0	0	0	03/22/22:12:51:59.790800	4122.109	0	0	guy	3	0.5	0	0	dot_startle
41	26	female	8	Probraum	5.5	20	2	phonemanbw	ex	black.PNG	60	0	0	0	0	03/22/22:12:51:59.806990	4122.125	0	0	guy	3	0.5	0	0	dot_startle
41	26	female	8	Probraum	5.5	20	2	phonemanbw	ex	black.PNG	60	0	0	0	0	03/22/22:12:51:59.823710	4122.14	0	0	guy	3	0.5	0	0	dot_startle
41	26	female	8	Probraum	5.5	20	2	phonemanbw	ex	black.PNG	60	0	0	0	0	03/22/22:12:51:59.840666	4122.156	0	0	guy	3	0.5	0	0	dot_startle
41	26	female	8	Probraum	5.5	20	2	phonemanbw	ex	black.PNG	60	0	0	0	0	03/22/22:12:51:59.857620	4122.187	0	0	guy	3	0.5	0	0	dot_startle
41	26	female	8	Probraum	5.5	20	2	phonemanbw	ex	black.PNG	60	0	0	0	0	03/22/22:12:51:59.873576	4122.203	0	0	guy	3	0.5	0	0	dot_startle
41	26	female	8	Probraum	5.5	20	2	phonemanbw	ex	black.PNG	60	0	0	0	0	03/22/22:12:51:59.890533	4122.218	0	0	guy	3	0.5	0	0	dot_startle
41	26	female	8	Probraum	5.5	20	2	phonemanbw	ex	black.PNG	60	0	0	0	0	03/22/22:12:51:59.907487	4122.234	0	0	guy	3	0.5	0	0	dot_startle
41	26	female	8	Probraum	5.5	20	2	phonemanbw	ex	black.PNG	60	0	0	0	0	03/22/22:12:51:59.923443	4122.25	0	0	guy	3	0.5	0	0	dot_startle
41	26	female	8	Probraum	5.5	20	2	phonemanbw	ex	black.PNG	60	0	0	0	0	03/22/22:12:51:59.940397	4122.265	0	0	guy	3	0.5	0	0	dot_startle
41	26	female	8	Probraum	5.5	20	2	phonemanbw	ex	black.PNG	60	0	0	0	0	03/22/22:12:51:59.957351	4122.281	0	0	guy	3	0.5	0	0	dot_startle
41	26	female	8	Probraum	5.5	20	2	phonemanbw	ex	black.PNG	60	0	0	0	0	03/22/22:12:51:59.973315	4122.296	0	0	guy	3	0.5	0	0	dot_startle
41	26	female	8	Probraum	5.5	20	2	phonemanbw	ex	black.PNG	60	0	0	0	0	03/22/22:12:51:59.990269	4122.312	0	0	guy	3	0.5	0	0	dot_startle
41	26	female	8	Probraum	5.5	20	2	phonemanbw	ex	black.PNG	60	0	0	0	0	03/22/22:12:52:00.007224	4122.328	0	0	guy	3	0.5	0	0	dot_startle
41	26	female	8	Probraum	5.5	20	2	phonemanbw	ex	black.PNG	60	0	0	0	0	03/22/22:12:52:00.023181	4122.343	0	0	guy	3	0.5	0	0	dot_startle
41	26	female	8	Probraum	5.5	20	2	phonemanbw	ex	black.PNG	60	0	0	0	0	03/22/22:12:52:00.040136	4122.359	0	0	guy	3	0.5	0	0	dot_startle
41	26	female	8	Probraum	5.5	20	2	phonemanbw	ex	black.PNG	60	0	0	0	0	03/22/22:12:52:00.057090	4122.375	0	0	guy	3	0.5	0	0	dot_startle
41	26	female	8	Probraum	5.5	20	2	phonemanbw	ex	black.PNG	60	0	0	0	0	03/22/22:12:52:00.074045	4122.39	0	0	guy	3	0.5	0	0	dot_startle
41	26	female	8	Probraum	5.5	20	2	phonemanbw	ex	black.PNG	60	0	0	0	0	03/22/22:12:52:00.090004	4122.406	0	0	guy	3	0.5	0	0	dot_startle
41	26	female	8	Probraum	5.5	20	2	phonemanbw	ex	black.PNG	60	0	0	0	0	03/22/22:12:52:00.106958	4122.437	0	0	guy	3	0.5	0	0	dot_startle
41	26	female	8	Probraum	5.5	20	2	phonemanbw	ex	black.PNG	60	0	0	0	0	03/22/22:12:52:00.122916	4122.453	0	0	guy	3	0.5	0	0	dot_startle
41	26	female	8	Probraum	5.5	20	2	phonemanbw	ex	black.PNG	60	0	0	0	0	03/22/22:12:52:00.139869	4122.468	0	0	guy	3	0.5	0	0	dot_startle
41	26	female	8	Probraum	5.5	20	2	phonemanbw	ex	black.PNG	60	0	0	0	0	03/22/22:12:52:00.156924	4122.484	0	0	guy	3	0.5	0	0	dot_startle
41	26	female	8	Probraum	5.5	20	2	phonemanbw	ex	black.PNG	60	0	0	0	0	03/22/22:12:52:00.173781	4122.5	0	0	opp	3	0.5	0	0	dot_startle
41	26	female	8	Probraum	5.5	20	2	phonemanbw	ex	black.PNG	60	0	0	0	0	03/22/22:12:52:00.190018	4122.515	0	0	opp	3	0.5	0	0	dot_startle
41	26	female	8	Probraum	5.5	20	2	phonemanbw	ex	black.PNG	60	0	0	0	0	03/22/22:12:52:00.206691	4122.531	0	0	opp	3	0.5	0	0	dot_startle
41	26	female	8	Probraum	5.5	20	2	phonemanbw	ex	black.PNG	60	0	0	0	0	03/22/22:12:52:00.223646	4122.546	0	0	opp	3	0.5	0	0	dot_startle
41	26	female	8	Probraum	5.5	20	2	phonemanbw	ex	black.PNG	60	0	0	0	0	03/22/22:12:52:00.239603	4122.562	0	0	opp	3	0.5	0	0	dot_startle
41	26	female	8	Probraum	5.5	20	2	phonemanbw	ex	black.PNG	60	0	0	0	0	03/22/22:12:52:00.256557	4122.578	0	0	opp	3	0.5	0	0	dot_startle
41	26	female	8	Probraum	5.5	20	2	phonemanbw	ex	black.PNG	60	0	0	0	0	03/22/22:12:52:00.273512	4122.593	0	0	opp	3	0.5	0	0	dot_startle
41	26	female	8	Probraum	5.5	20	2	phonemanbw	ex	black.PNG	60	0	0	0	0	03/22/22:12:52:00.290467	4122.609	0	0	opp	3	0.5	0	0	dot_startle
41	26	female	8	Probraum	5.5	20	2	phonemanbw	ex	black.PNG	60	0	0	0	0	03/22/22:12:52:00.306424	4122.625	0	0	opp	3	0.5	0	0	dot_startle
41	26	female	8	Probraum	5.5	20	2	phonemanbw	ex	black.PNG	60	0	0	0	0	03/22/22:12:52:00.323380	4122.64	0	0	opp	3	0.5	0	0	dot_startle
41	26	female	8	Probraum	5.5	20	2	phonemanbw	ex	black.PNG	60	0	0	0	0	03/22/22:12:52:00.340333	4122.656	0	0	opp	3	0.5	0	0	dot_startle
41	26	female	8	Probraum	5.5	20	2	phonemanbw	ex	black.PNG	60	0	0	0	0	03/22/22:12:52:00.357289	4122.687	0	0	opp	3	0.5	0	0	dot_startle
41	26	female	8	Probraum	5.5	20	2	phonemanbw	ex	black.PNG	60	0	0	0	0	03/22/22:12:52:00.373245	4122.703	0	0	opp	3	0.5	0	0	dot_startle
41	26	female	8	Probraum	5.5	20	2	phonemanbw	ex	black.PNG	60	0	0	0	0	03/22/22:12:52:00.390201	4122.718	0	0	opp	3	0.5	0	0	dot_startle
41	26	female	8	Probraum	5.5	20	2	phonemanbw	ex	black.PNG	60	0	0	0	0	03/22/22:12:52:00.407156	4122.734	0	0	opp	3	0.5	0	0	dot_startle
41	26	female	8	Probraum	5.5	20	2	phonemanbw	ex	black.PNG	60	0	0	0	0	03/22/22:12:52:00.423113	4122.75	0	0	opp	3	0.5	0	0	dot_startle
41	26	female	8	Probraum	5.5	20	2	phonemanbw	ex	black.PNG	60	0	0	0	0	03/22/22:12:52:00.440068	4122.765	0	0	opp	3	0.5	0	0	dot_startle
41	26	female	8	Probraum	5.5	20	2	phonemanbw	ex	black.PNG	60	0	0	0	0	03/22/22:12:52:00.457022	4122.781	0	0	opp	3	0.5	0	0	dot_startle
41	26	female	8	Probraum	5.5	20	2	phonemanbw	ex	black.PNG	60	0	0	0	0	03/22/22:12:52:00.473977	4122.796	0	0	opp	3	0.5	0	0	dot_startle
41	26	female	8	Probraum	5.5	20	2	phonemanbw	ex	black.PNG	60	0	0	0	0	03/22/22:12:52:00.489933	4122.812	0	0	opp	3	0.5	0	0	dot_startle
41	26	female	8	Probraum	5.5	20	2	phonemanbw	ex	black.PNG	60	0	0	0	0	03/22/22:12:52:00.506888	4122.828	0	0	opp	3	0.5	0	0	dot_startle
41	26	female	8	Probraum	5.5	20	2	phonemanbw	ex	black.PNG	60	0	0	0	0	03/22/22:12:52:00.523842	4122.843	0	0	opp	3	0.5	0	0	dot_startle
41	26	female	8	Probraum	5.5	20	2	phonemanbw	ex	black.PNG	60	0	0	0	0	03/22/22:12:52:00.539800	4122.859	0	0	opp	3	0.5	0	0	dot_startle
41	26	female	8	Probraum	5.5	20	2	phonemanbw	ex	black.PNG	60	0	0	0	0	03/22/22:12:52:00.556756	4122.875	0	0	opp	3	0.5	0	0	dot_startle
41	26	female	8	Probraum	5.5	20	2	phonemanbw	ex	black.PNG	60	0	0	0	0	03/22/22:12:52:00.573710	4122.89	0	0	opp	3	0.5	0	0	dot_startle
41	26	female	8	Probraum	5.5	20	2	phonemanbw	ex	black.PNG	60	0	0	0	0	03/22/22:12:52:00.590665	4122.906	0	0	opp	3	0.5	0	0	dot_startle
41	26	female	8	Probraum	5.5	20	2	phonemanbw	ex	black.PNG	60	0	0	0	0	03/22/22:12:52:00.606621	4122.921	0	0	opp	3	0.5	0	0	dot_startle
41	26	female	8	Probraum	5.5	20	2	phonemanbw	ex	black.PNG	60	0	0	0	0	03/22/22:12:52:00.623577	4122.953	0	0	opp	3	0.5	0	0	dot_startle
41	26	female	8	Probraum	5.5	20	2	phonemanbw	ex	black.PNG	60	0	0	0	0	03/22/22:12:52:00.640532	4122.968	0	0	opp	3	0.5	0	0	dot_startle
41	26	female	8	Probraum	5.5	20	2	phonemanbw	ex	black.PNG	60	0	0	0	0	03/22/22:12:52:00.657487	4122.984	0	0	opp	3	0.5	0	0	dot_startle
41	26	female	8	Probraum	5.5	20	2	phonemanbw	ex	black.PNG	60	0	0	0	0	03/22/22:12:52:00.673791	4123.0	0	C	follow up	3	0.5	0	0	dot_startle
41	26	female	8	Probraum	5.5	20	2	phonemancaro	ex	black.PNG	60	0	0	0	0	03/22/22:12:52:05.779789	4128.109	0	0	onset	3	0.5	0	0	iti_startle
41	26	female	8	Probraum	5.5	20	2	phonemancaro	ex	black.PNG	60	0	0	0	0	03/22/22:12:52:05.893486	4128.218	0	0	anticipation	3	0.5	0	0	iti_startle
41	26	female	8	Probraum	5.5	20	2	phonemancaro	ex	black.PNG	60	0	0	0	0	03/22/22:12:52:06.008179	4128.328	0	0	anticipation	3	0.5	0	0	iti_startle
41	26	female	8	Probraum	5.5	20	2	phonemancaro	ex	black.PNG	60	0	0	0	0	03/22/22:12:52:06.121875	4128.437	0	0	anticipation	3	0.5	0	0	iti_startle
41	26	female	8	Probraum	5.5	20	2	phonemancaro	ex	black.PNG	60	0	0	0	0	03/22/22:12:52:06.235571	4128.562	0	0	anticipation	3	0.5	0	0	iti_startle
41	26	female	8	Probraum	5.5	20	2	phonemancaro	ex	black.PNG	60	0	0	0	0	03/22/22:12:52:06.350265	4128.671	0	0	anticipation	3	0.5	0	0	iti_startle
41	26	female	8	Probraum	5.5	20	2	phonemancaro	ex	black.PNG	60	0	0	0	0	03/22/22:12:52:06.463960	4128.781	0	0	anticipation	3	0.5	0	0	iti_startle
41	26	female	8	Probraum	5.5	20	2	phonemancaro	ex	black.PNG	60	0	0	0	0	03/22/22:12:52:06.578655	4128.906	0	0	anticipation	3	0.5	0	0	iti_startle
41	26	female	8	Probraum	5.5	20	2	phonemancaro	ex	black.PNG	60	0	0	0	0	03/22/22:12:52:06.693348	4129.015	0	0	anticipation	3	0.5	0	0	iti_startle
41	26	female	8	Probraum	5.5	20	2	phonemancaro	ex	black.PNG	60	0	0	0	0	03/22/22:12:52:06.807044	4129.125	0	0	anticipation	3	0.5	0	0	iti_startle
41	26	female	8	Probraum	5.5	20	2	phonemancaro	ex	black.PNG	60	0	0	0	0	03/22/22:12:52:06.920739	4129.25	0	0	anticipation	3	0.5	0	0	iti_startle
41	26	female	8	Probraum	5.5	20	2	phonemancaro	ex	black.PNG	60	0	0	0	0	03/22/22:12:52:07.034434	4129.359	0	0	anticipation	3	0.5	0	0	iti_startle
41	26	female	8	Probraum	5.5	20	2	phonemancaro	ex	black.PNG	60	0	0	0	0	03/22/22:12:52:07.147135	4129.468	0	0	anticipation	3	0.5	0	0	iti_startle
41	26	female	8	Probraum	5.5	20	2	phonemancaro	ex	black.PNG	60	0	0	0	0	03/22/22:12:52:07.261828	4129.578	0	0	anticipation	3	0.5	0	0	iti_startle
41	26	female	8	Probraum	5.5	20	2	phonemancaro	ex	black.PNG	60	0	0	0	0	03/22/22:12:52:07.376520	4129.703	0	0	anticipation	3	0.5	0	0	iti_startle
41	26	female	8	Probraum	5.5	20	2	phonemancaro	ex	black.PNG	60	0	0	0	0	03/22/22:12:52:07.490216	4129.812	0	0	anticipation	3	0.5	0	0	iti_startle
41	26	female	8	Probraum	5.5	20	2	phonemancaro	ex	black.PNG	60	0	0	0	0	03/22/22:12:52:07.604911	4129.921	0	0	anticipation	3	0.5	0	0	iti_startle
41	26	female	8	Probraum	5.5	20	2	phonemancaro	ex	black.PNG	60	0	0	0	0	03/22/22:12:52:07.720602	4130.046	0	0	anticipation	3	0.5	0	0	iti_startle
41	26	female	8	Probraum	5.5	20	2	phonemancaro	ex	black.PNG	60	0	0	0	0	03/22/22:12:52:07.859230	4130.187	0	0	anticipation	3	0.5	0	0	iti_startle
41	26	female	8	Probraum	5.5	20	2	phonemancaro	ex	black.PNG	60	0	0	0	0	03/22/22:12:52:07.972926	4130.296	0	0	anticipation	3	0.5	0	0	iti_startle
41	26	female	8	Probraum	5.5	20	2	phonemancaro	ex	black.PNG	60	0	0	0	0	03/22/22:12:52:08.087619	4130.406	0	0	anticipation	3	0.5	0	0	iti_startle
41	26	female	8	Probraum	5.5	20	2	phonemancaro	ex	black.PNG	60	0	0	0	0	03/22/22:12:52:08.202312	4130.531	0	0	anticipation	3	0.5	0	0	iti_startle
41	26	female	8	Probraum	5.5	20	2	phonemancaro	ex	black.PNG	60	0	0	0	0	03/22/22:12:52:08.318004	4130.64	0	0	anticipation	3	0.5	0	0	iti_startle
41	26	female	8	Probraum	5.5	20	2	phonemancaro	ex	black.PNG	60	0	0	0	0	03/22/22:12:52:08.432696	4130.75	0	0	anticipation	3	0.5	0	0	iti_startle
41	26	female	8	Probraum	5.5	20	2	phonemancaro	ex	black.PNG	60	0	0	0	0	03/22/22:12:52:08.546392	4130.875	0	0	anticipation	3	0.5	0	0	iti_startle
41	26	female	8	Probraum	5.5	20	2	phonemancaro	ex	black.PNG	60	0	0	0	0	03/22/22:12:52:08.660088	4130.984	0	0	anticipation	3	0.5	0	0	iti_startle
41	26	female	8	Probraum	5.5	20	2	phonemancaro	ex	black.PNG	60	0	0	0	0	03/22/22:12:52:08.774781	4131.093	0	0	anticipation	3	0.5	0	0	iti_startle
41	26	female	8	Probraum	5.5	20	2	phonemancaro	ex	black.PNG	60	0	0	0	0	03/22/22:12:52:08.890472	4131.218	0	0	anticipation	3	0.5	0	0	iti_startle
41	26	female	8	Probraum	5.5	20	2	phonemancaro	ex	black.PNG	60	0	0	0	0	03/22/22:12:52:09.003170	4131.328	0	0	anticipation	3	0.5	0	0	iti_startle
41	26	female	8	Probraum	5.5	20	2	phonemancaro	ex	black.PNG	60	0	0	0	0	03/22/22:12:52:09.118861	4131.437	0	0	anticipation	3	0.5	0	0	iti_startle
41	26	female	8	Probraum	5.5	20	2	phonemancaro	ex	black.PNG	60	0	0	0	0	03/22/22:12:52:09.232559	4131.562	0	0	anticipation	3	0.5	0	0	iti_startle
41	26	female	8	Probraum	5.5	20	2	phonemancaro	ex	black.PNG	60	0	0	0	0	03/22/22:12:52:09.347252	4131.671	0	0	anticipation	3	0.5	0	0	iti_startle
41	26	female	8	Probraum	5.5	20	2	phonemancaro	ex	black.PNG	60	0	0	0	0	03/22/22:12:52:09.461946	4131.781	0	0	anticipation	3	0.5	0	0	iti_startle
41	26	female	8	Probraum	5.5	20	2	phonemancaro	ex	black.PNG	60	0	0	0	0	03/22/22:12:52:09.575642	4131.89	0	0	anticipation	3	0.5	0	0	iti_startle
41	26	female	8	Probraum	5.5	20	2	phonemancaro	ex	black.PNG	60	0	0	0	0	03/22/22:12:52:09.690334	4132.015	0	0	anticipation	3	0.5	0	0	iti_startle
41	26	female	8	Probraum	5.5	20	2	phonemancaro	ex	black.PNG	60	0	0	0	0	03/22/22:12:52:09.805028	4132.125	0	0	anticipation	3	0.5	0	0	iti_startle
41	26	female	8	Probraum	5.5	20	2	phonemancaro	ex	black.PNG	60	0	0	0	0	03/22/22:12:52:09.919721	4132.25	0	0	anticipation	3	0.5	0	0	iti_startle
41	26	female	8	Probraum	5.5	20	2	phonemancaro	ex	black.PNG	60	0	0	0	0	03/22/22:12:52:10.032420	4132.359	0	0	anticipation	3	0.5	0	0	iti_startle
41	26	female	8	Probraum	5.5	20	2	phonemancaro	ex	black.PNG	60	0	0	0	0	03/22/22:12:52:10.145118	4132.468	0	0	anticipation	3	0.5	0	0	iti_startle
41	26	female	8	Probraum	5.5	20	2	phonemancaro	ex	black.PNG	60	0	0	0	0	03/22/22:12:52:10.259813	4132.578	0	0	anticipation	3	0.5	0	0	iti_startle
41	26	female	8	Probraum	5.5	20	2	phonemancaro	ex	black.PNG	60	0	0	0	0	03/22/22:12:52:10.373508	4132.703	0	0	anticipation	3	0.5	0	0	iti_startle
41	26	female	8	Probraum	5.5	20	2	phonemancaro	ex	black.PNG	60	0	0	0	0	03/22/22:12:52:10.488201	4132.812	0	0	anticipation	3	0.5	0	0	iti_startle
41	26	female	8	Probraum	5.5	20	2	phonemancaro	ex	black.PNG	60	0	0	0	0	03/22/22:12:52:10.601899	4132.921	0	0	anticipation	3	0.5	0	0	iti_startle
41	26	female	8	Probraum	5.5	20	2	phonemancaro	ex	black.PNG	60	0	0	0	0	03/22/22:12:52:10.715594	4133.031	0	0	anticipation	3	0.5	0	0	iti_startle
41	26	female	8	Probraum	5.5	20	2	phonemancaro	ex	black.PNG	60	0	0	0	0	03/22/22:12:52:10.830285	4133.156	0	0	anticipation	3	0.5	0	0	iti_startle
41	26	female	8	Probraum	5.5	20	2	phonemancaro	ex	black.PNG	60	0	0	0	0	03/22/22:12:52:10.944978	4133.265	0	0	anticipation	3	0.5	0	0	iti_startle
41	26	female	8	Probraum	5.5	20	2	phonemancaro	ex	black.PNG	60	0	0	0	0	03/22/22:12:52:11.058675	4133.375	0	0	anticipation	3	0.5	0	0	iti_startle
41	26	female	8	Probraum	5.5	20	2	phonemancaro	ex	black.PNG	60	0	0	0	0	03/22/22:12:52:11.172372	4133.5	0	0	anticipation	3	0.5	0	0	iti_startle
41	26	female	8	Probraum	5.5	20	2	phonemancaro	ex	black.PNG	60	0	0	0	0	03/22/22:12:52:11.287066	4133.609	0	0	anticipation	3	0.5	0	0	iti_startle
41	26	female	8	Probraum	5.5	20	2	phonemancaro	ex	black.PNG	60	0	0	0	0	03/22/22:12:52:11.400761	4133.718	0	0	anticipation	3	0.5	0	0	iti_startle
41	26	female	8	Probraum	5.5	20	2	phonemancaro	ex	black.PNG	60	0	0	0	0	03/22/22:12:52:11.515455	4133.843	0	0	anticipation	3	0.5	0	0	iti_startle
41	26	female	8	Probraum	5.5	20	2	phonemancaro	ex	black.PNG	60	0	0	0	0	03/22/22:12:52:11.631146	4133.953	0	0	anticipation	3	0.5	0	0	iti_startle
41	26	female	8	Probraum	5.5	20	2	phonemancaro	ex	black.PNG	60	0	0	0	0	03/22/22:12:52:11.743843	4134.062	0	0	anticipation	3	0.5	0	0	iti_startle
41	26	female	8	Probraum	5.5	20	2	phonemancaro	ex	black.PNG	60	0	0	0	0	03/22/22:12:52:11.858536	4134.187	0	0	anticipation	3	0.5	0	0	iti_startle
41	26	female	8	Probraum	5.5	20	2	phonemancaro	ex	black.PNG	60	0	0	0	0	03/22/22:12:52:11.972232	4134.296	0	0	anticipation	3	0.5	0	0	iti_startle
41	26	female	8	Probraum	5.5	20	2	phonemancaro	ex	black.PNG	60	0	0	0	0	03/22/22:12:52:11.975224	4134.296	0	0	guy	3	0.5	0	0	iti_startle
41	26	female	8	Probraum	5.5	20	2	phonemancaro	ex	black.PNG	60	0	0	0	0	03/22/22:12:52:11.989188	4134.312	0	0	guy	3	0.5	0	0	iti_startle
41	26	female	8	Probraum	5.5	20	2	phonemancaro	ex	black.PNG	60	0	0	0	0	03/22/22:12:52:12.006141	4134.328	0	0	guy	3	0.5	0	0	iti_startle
41	26	female	8	Probraum	5.5	20	2	phonemancaro	ex	black.PNG	60	0	0	0	0	03/22/22:12:52:12.023098	4134.343	0	0	guy	3	0.5	0	0	iti_startle
41	26	female	8	Probraum	5.5	20	2	phonemancaro	ex	black.PNG	60	0	0	0	0	03/22/22:12:52:12.040052	4134.359	0	0	guy	3	0.5	0	0	iti_startle
41	26	female	8	Probraum	5.5	20	2	phonemancaro	ex	black.PNG	60	0	0	0	0	03/22/22:12:52:12.057007	4134.375	0	0	guy	3	0.5	0	0	iti_startle
41	26	female	8	Probraum	5.5	20	2	phonemancaro	ex	black.PNG	60	0	0	0	0	03/22/22:12:52:12.073961	4134.39	0	0	guy	3	0.5	0	0	iti_startle
41	26	female	8	Probraum	5.5	20	2	phonemancaro	ex	black.PNG	60	0	0	0	0	03/22/22:12:52:12.089919	4134.406	0	0	guy	3	0.5	0	0	iti_startle
41	26	female	8	Probraum	5.5	20	2	phonemancaro	ex	black.PNG	60	0	0	0	0	03/22/22:12:52:12.106872	4134.421	0	0	guy	3	0.5	0	0	iti_startle
41	26	female	8	Probraum	5.5	20	2	phonemancaro	ex	black.PNG	60	0	0	0	0	03/22/22:12:52:12.123828	4134.453	0	0	guy	3	0.5	0	0	iti_startle
41	26	female	8	Probraum	5.5	20	2	phonemancaro	ex	black.PNG	60	0	0	0	0	03/22/22:12:52:12.139785	4134.468	0	0	guy	3	0.5	0	0	iti_startle
41	26	female	8	Probraum	5.5	20	2	phonemancaro	ex	black.PNG	60	0	0	0	0	03/22/22:12:52:12.156739	4134.484	0	0	guy	3	0.5	0	0	iti_startle
41	26	female	8	Probraum	5.5	20	2	phonemancaro	ex	black.PNG	60	0	0	0	0	03/22/22:12:52:12.173693	4134.5	0	0	guy	3	0.5	0	0	iti_startle
41	26	female	8	Probraum	5.5	20	2	phonemancaro	ex	black.PNG	60	0	0	0	0	03/22/22:12:52:12.190648	4134.515	0	0	guy	3	0.5	0	0	iti_startle
41	26	female	8	Probraum	5.5	20	2	phonemancaro	ex	black.PNG	60	0	0	0	0	03/22/22:12:52:12.206605	4134.531	0	0	guy	3	0.5	0	0	iti_startle
41	26	female	8	Probraum	5.5	20	2	phonemancaro	ex	black.PNG	60	0	0	0	0	03/22/22:12:52:12.223560	4134.546	0	0	guy	3	0.5	0	0	iti_startle
41	26	female	8	Probraum	5.5	20	2	phonemancaro	ex	black.PNG	60	0	0	0	0	03/22/22:12:52:12.240515	4134.562	0	0	guy	3	0.5	0	0	iti_startle
41	26	female	8	Probraum	5.5	20	2	phonemancaro	ex	black.PNG	60	0	0	0	0	03/22/22:12:52:12.256473	4134.578	0	0	guy	3	0.5	0	0	iti_startle
41	26	female	8	Probraum	5.5	20	2	phonemancaro	ex	black.PNG	60	0	0	0	0	03/22/22:12:52:12.273428	4134.593	0	0	guy	3	0.5	0	0	iti_startle
41	26	female	8	Probraum	5.5	20	2	phonemancaro	ex	black.PNG	60	0	0	0	0	03/22/22:12:52:12.290383	4134.609	0	0	guy	3	0.5	0	0	iti_startle
41	26	female	8	Probraum	5.5	20	2	phonemancaro	ex	black.PNG	60	0	0	0	0	03/22/22:12:52:12.307336	4134.625	0	0	guy	3	0.5	0	0	iti_startle
41	26	female	8	Probraum	5.5	20	2	phonemancaro	ex	black.PNG	60	0	0	0	0	03/22/22:12:52:12.323293	4134.64	0	0	guy	3	0.5	0	0	iti_startle
41	26	female	8	Probraum	5.5	20	2	phonemancaro	ex	black.PNG	60	0	0	0	0	03/22/22:12:52:12.340248	4134.656	0	0	guy	3	0.5	0	0	iti_startle
41	26	female	8	Probraum	5.5	20	2	phonemancaro	ex	black.PNG	60	0	0	0	0	03/22/22:12:52:12.357203	4134.687	0	0	guy	3	0.5	0	0	iti_startle
41	26	female	8	Probraum	5.5	20	2	phonemancaro	ex	black.PNG	60	0	0	0	0	03/22/22:12:52:12.374160	4134.703	0	0	guy	3	0.5	0	0	iti_startle
41	26	female	8	Probraum	5.5	20	2	phonemancaro	ex	black.PNG	60	0	0	0	0	03/22/22:12:52:12.390115	4134.718	0	0	guy	3	0.5	0	0	iti_startle
41	26	female	8	Probraum	5.5	20	2	phonemancaro	ex	black.PNG	60	0	0	0	0	03/22/22:12:52:12.407069	4134.734	0	0	guy	3	0.5	0	0	iti_startle
41	26	female	8	Probraum	5.5	20	2	phonemancaro	ex	black.PNG	60	0	0	0	0	03/22/22:12:52:12.424025	4134.75	0	0	guy	3	0.5	0	0	iti_startle
41	26	female	8	Probraum	5.5	20	2	phonemancaro	ex	black.PNG	60	0	0	0	0	03/22/22:12:52:12.439982	4134.765	0	0	guy	3	0.5	0	0	iti_startle
41	26	female	8	Probraum	5.5	20	2	phonemancaro	ex	black.PNG	60	0	0	0	0	03/22/22:12:52:12.456936	4134.781	0	0	guy	3	0.5	0	0	iti_startle
41	26	female	8	Probraum	5.5	20	2	phonemancaro	ex	black.PNG	60	0	0	0	0	03/22/22:12:52:12.473892	4134.796	0	0	guy	3	0.5	0	0	iti_startle
41	26	female	8	Probraum	5.5	20	2	phonemancaro	ex	black.PNG	60	0	0	0	0	03/22/22:12:52:12.490846	4134.812	0	0	guy	3	0.5	0	0	iti_startle
41	26	female	8	Probraum	5.5	20	2	phonemancaro	ex	black.PNG	60	0	0	0	0	03/22/22:12:52:12.506805	4134.828	0	0	guy	3	0.5	0	0	iti_startle
41	26	female	8	Probraum	5.5	20	2	phonemancaro	ex	black.PNG	60	0	0	0	0	03/22/22:12:52:12.523766	4134.843	0	0	guy	3	0.5	0	0	iti_startle
41	26	female	8	Probraum	5.5	20	2	phonemancaro	ex	black.PNG	60	0	0	0	0	03/22/22:12:52:12.540717	4134.859	0	0	guy	3	0.5	0	0	iti_startle
41	26	female	8	Probraum	5.5	20	2	phonemancaro	ex	black.PNG	60	0	0	0	0	03/22/22:12:52:12.556674	4134.875	0	0	guy	3	0.5	0	0	iti_startle
41	26	female	8	Probraum	5.5	20	2	phonemancaro	ex	black.PNG	60	0	0	0	0	03/22/22:12:52:12.573629	4134.89	0	0	guy	3	0.5	0	0	iti_startle
41	26	female	8	Probraum	5.5	20	2	phonemancaro	ex	black.PNG	60	0	0	0	0	03/22/22:12:52:12.590585	4134.906	0	0	guy	3	0.5	0	0	iti_startle
41	26	female	8	Probraum	5.5	20	2	phonemancaro	ex	black.PNG	60	0	0	0	0	03/22/22:12:52:12.606542	4134.921	0	0	guy	3	0.5	0	0	iti_startle
41	26	female	8	Probraum	5.5	20	2	phonemancaro	ex	black.PNG	60	0	0	0	0	03/22/22:12:52:12.623496	4134.953	0	0	guy	3	0.5	0	0	iti_startle
41	26	female	8	Probraum	5.5	20	2	phonemancaro	ex	black.PNG	60	0	0	0	0	03/22/22:12:52:12.640450	4134.968	0	0	guy	3	0.5	0	0	iti_startle
41	26	female	8	Probraum	5.5	20	2	phonemancaro	ex	black.PNG	60	0	0	0	0	03/22/22:12:52:12.657407	4134.984	0	0	guy	3	0.5	0	0	iti_startle
41	26	female	8	Probraum	5.5	20	2	phonemancaro	ex	black.PNG	60	0	0	0	0	03/22/22:12:52:12.673368	4135.0	0	0	guy	3	0.5	0	0	iti_startle
41	26	female	8	Probraum	5.5	20	2	phonemancaro	ex	black.PNG	60	0	0	0	0	03/22/22:12:52:12.690322	4135.015	0	0	guy	3	0.5	0	0	iti_startle
41	26	female	8	Probraum	5.5	20	2	phonemancaro	ex	black.PNG	60	0	0	0	0	03/22/22:12:52:12.707277	4135.031	0	0	guy	3	0.5	0	0	iti_startle
41	26	female	8	Probraum	5.5	20	2	phonemancaro	ex	black.PNG	60	0	0	0	0	03/22/22:12:52:12.724232	4135.046	0	0	guy	3	0.5	0	0	iti_startle
41	26	female	8	Probraum	5.5	20	2	phonemancaro	ex	black.PNG	60	0	0	0	0	03/22/22:12:52:12.740189	4135.062	0	0	guy	3	0.5	0	0	iti_startle
41	26	female	8	Probraum	5.5	20	2	phonemancaro	ex	black.PNG	60	0	0	0	0	03/22/22:12:52:12.757143	4135.078	0	0	guy	3	0.5	0	0	iti_startle
41	26	female	8	Probraum	5.5	20	2	phonemancaro	ex	black.PNG	60	0	0	0	0	03/22/22:12:52:12.774098	4135.093	0	0	guy	3	0.5	0	0	iti_startle
41	26	female	8	Probraum	5.5	20	2	phonemancaro	ex	black.PNG	60	0	0	0	0	03/22/22:12:52:12.790056	4135.109	0	0	guy	3	0.5	0	0	iti_startle
41	26	female	8	Probraum	5.5	20	2	phonemancaro	ex	black.PNG	60	0	0	0	0	03/22/22:12:52:12.807010	4135.125	0	0	guy	3	0.5	0	0	iti_startle
41	26	female	8	Probraum	5.5	20	2	phonemancaro	ex	black.PNG	60	0	0	0	0	03/22/22:12:52:12.823964	4135.14	0	0	guy	3	0.5	0	0	iti_startle
41	26	female	8	Probraum	5.5	20	2	phonemancaro	ex	black.PNG	60	0	0	0	0	03/22/22:12:52:12.839922	4135.156	0	0	guy	3	0.5	0	0	iti_startle
41	26	female	8	Probraum	5.5	20	2	phonemancaro	ex	black.PNG	60	0	0	0	0	03/22/22:12:52:12.856877	4135.171	0	0	guy	3	0.5	0	0	iti_startle
41	26	female	8	Probraum	5.5	20	2	phonemancaro	ex	black.PNG	60	0	0	0	0	03/22/22:12:52:12.873832	4135.203	0	0	guy	3	0.5	0	0	iti_startle
41	26	female	8	Probraum	5.5	20	2	phonemancaro	ex	black.PNG	60	0	0	0	0	03/22/22:12:52:12.890786	4135.218	0	0	opp	3	0.5	0	0	iti_startle
41	26	female	8	Probraum	5.5	20	2	phonemancaro	ex	black.PNG	60	0	0	0	0	03/22/22:12:52:12.906744	4135.234	0	0	opp	3	0.5	0	0	iti_startle
41	26	female	8	Probraum	5.5	20	2	phonemancaro	ex	black.PNG	60	0	0	0	0	03/22/22:12:52:12.923698	4135.25	0	0	opp	3	0.5	0	0	iti_startle
41	26	female	8	Probraum	5.5	20	2	phonemancaro	ex	black.PNG	60	0	0	0	0	03/22/22:12:52:12.940653	4135.265	0	0	opp	3	0.5	0	0	iti_startle
41	26	female	8	Probraum	5.5	20	2	phonemancaro	ex	black.PNG	60	0	0	0	0	03/22/22:12:52:12.956610	4135.281	0	0	opp	3	0.5	0	0	iti_startle
41	26	female	8	Probraum	5.5	20	2	phonemancaro	ex	black.PNG	60	0	0	0	0	03/22/22:12:52:12.973565	4135.296	0	0	opp	3	0.5	0	0	iti_startle
41	26	female	8	Probraum	5.5	20	2	phonemancaro	ex	black.PNG	60	0	0	0	0	03/22/22:12:52:12.990519	4135.312	0	0	opp	3	0.5	0	0	iti_startle
41	26	female	8	Probraum	5.5	20	2	phonemancaro	ex	black.PNG	60	0	0	0	0	03/22/22:12:52:13.006476	4135.328	0	0	opp	3	0.5	0	0	iti_startle
41	26	female	8	Probraum	5.5	20	2	phonemancaro	ex	black.PNG	60	0	0	0	0	03/22/22:12:52:13.023431	4135.343	0	0	opp	3	0.5	0	0	iti_startle
41	26	female	8	Probraum	5.5	20	2	phonemancaro	ex	black.PNG	60	0	0	0	0	03/22/22:12:52:13.040386	4135.359	0	0	opp	3	0.5	0	0	iti_startle
41	26	female	8	Probraum	5.5	20	2	phonemancaro	ex	black.PNG	60	0	0	0	0	03/22/22:12:52:13.057342	4135.375	0	0	opp	3	0.5	0	0	iti_startle
41	26	female	8	Probraum	5.5	20	2	phonemancaro	ex	black.PNG	60	0	0	0	0	03/22/22:12:52:13.073298	4135.39	0	0	opp	3	0.5	0	0	iti_startle
41	26	female	8	Probraum	5.5	20	2	phonemancaro	ex	black.PNG	60	0	0	0	0	03/22/22:12:52:13.090253	4135.406	0	0	opp	3	0.5	0	0	iti_startle
41	26	female	8	Probraum	5.5	20	2	phonemancaro	ex	black.PNG	60	0	0	0	0	03/22/22:12:52:13.107208	4135.437	0	0	opp	3	0.5	0	0	iti_startle
41	26	female	8	Probraum	5.5	20	2	phonemancaro	ex	black.PNG	60	0	0	0	0	03/22/22:12:52:13.123165	4135.453	0	0	opp	3	0.5	0	0	iti_startle
41	26	female	8	Probraum	5.5	20	2	phonemancaro	ex	black.PNG	60	0	0	0	0	03/22/22:12:52:13.140120	4135.468	0	0	opp	3	0.5	0	0	iti_startle
41	26	female	8	Probraum	5.5	20	2	phonemancaro	ex	black.PNG	60	0	0	0	0	03/22/22:12:52:13.157075	4135.484	0	0	opp	3	0.5	0	0	iti_startle
41	26	female	8	Probraum	5.5	20	2	phonemancaro	ex	black.PNG	60	0	0	0	0	03/22/22:12:52:13.173032	4135.5	0	0	opp	3	0.5	0	0	iti_startle
41	26	female	8	Probraum	5.5	20	2	phonemancaro	ex	black.PNG	60	0	0	0	0	03/22/22:12:52:13.189986	4135.515	0	0	opp	3	0.5	0	0	iti_startle
41	26	female	8	Probraum	5.5	20	2	phonemancaro	ex	black.PNG	60	0	0	0	0	03/22/22:12:52:13.206941	4135.531	0	0	opp	3	0.5	0	0	iti_startle
41	26	female	8	Probraum	5.5	20	2	phonemancaro	ex	black.PNG	60	0	0	0	0	03/22/22:12:52:13.223896	4135.546	0	0	opp	3	0.5	0	0	iti_startle
41	26	female	8	Probraum	5.5	20	2	phonemancaro	ex	black.PNG	60	0	0	0	0	03/22/22:12:52:13.239853	4135.562	0	0	opp	3	0.5	0	0	iti_startle
41	26	female	8	Probraum	5.5	20	2	phonemancaro	ex	black.PNG	60	0	0	0	0	03/22/22:12:52:13.256808	4135.578	0	0	opp	3	0.5	0	0	iti_startle
41	26	female	8	Probraum	5.5	20	2	phonemancaro	ex	black.PNG	60	0	0	0	0	03/22/22:12:52:13.273762	4135.593	0	0	opp	3	0.5	0	0	iti_startle
41	26	female	8	Probraum	5.5	20	2	phonemancaro	ex	black.PNG	60	0	0	0	0	03/22/22:12:52:13.289719	4135.609	0	0	opp	3	0.5	0	0	iti_startle
41	26	female	8	Probraum	5.5	20	2	phonemancaro	ex	black.PNG	60	0	0	0	0	03/22/22:12:52:13.306674	4135.625	0	0	opp	3	0.5	0	0	iti_startle
41	26	female	8	Probraum	5.5	20	2	phonemancaro	ex	black.PNG	60	0	0	0	0	03/22/22:12:52:13.323628	4135.64	0	0	opp	3	0.5	0	0	iti_startle
41	26	female	8	Probraum	5.5	20	2	phonemancaro	ex	black.PNG	60	0	0	0	0	03/22/22:12:52:13.340583	4135.656	0	0	opp	3	0.5	0	0	iti_startle
41	26	female	8	Probraum	5.5	20	2	phonemancaro	ex	black.PNG	60	0	0	0	0	03/22/22:12:52:13.356540	4135.671	0	0	opp	3	0.5	0	0	iti_startle
41	26	female	8	Probraum	5.5	20	2	phonemancaro	ex	black.PNG	60	0	0	0	0	03/22/22:12:52:13.373495	4135.703	0	0	opp	3	0.5	0	0	iti_startle
41	26	female	8	Probraum	5.5	20	2	phonemancaro	ex	black.PNG	60	0	0	0	0	03/22/22:12:52:13.390449	4135.718	0	0	opp	3	0.5	0	0	iti_startle
41	26	female	8	Probraum	5.5	20	2	phonemancaro	ex	black.PNG	60	0	0	0	0	03/22/22:12:52:13.407405	4135.734	0	C	follow up	3	0.5	0	0	iti_startle
41	26	female	8	Probraum	5.5	20	2	phonemancaro	ex	black.PNG	60	0	0	0	0	03/22/22:12:52:13.407405	4135.734	0	C	follow up	3	0.5	0	0	iti_startle
41	26	female	8	Probraum	5.5	20	2	gunmancaro	ex	black.PNG	60	0	0	0	0	03/22/22:12:52:22.514056	4144.843	0	0	onset	3	0.5	0	0	dot_starte
41	26	female	8	Probraum	5.5	20	2	gunmancaro	ex	black.PNG	60	0	0	0	0	03/22/22:12:52:22.631741	4144.953	0	0	anticipation	3	0.5	0	0	dot_starte
41	26	female	8	Probraum	5.5	20	2	gunmancaro	ex	black.PNG	60	0	0	0	0	03/22/22:12:52:22.748428	4145.078	0	0	anticipation	3	0.5	0	0	dot_starte
41	26	female	8	Probraum	5.5	20	2	gunmancaro	ex	black.PNG	60	0	0	0	0	03/22/22:12:52:22.863123	4145.187	0	0	anticipation	3	0.5	0	0	dot_starte
41	26	female	8	Probraum	5.5	20	2	gunmancaro	ex	black.PNG	60	0	0	0	0	03/22/22:12:52:22.977817	4145.296	0	0	anticipation	3	0.5	0	0	dot_starte
41	26	female	8	Probraum	5.5	20	2	gunmancaro	ex	black.PNG	60	0	0	0	0	03/22/22:12:52:23.092508	4145.421	0	0	anticipation	3	0.5	0	0	dot_starte
41	26	female	8	Probraum	5.5	20	2	gunmancaro	ex	black.PNG	60	0	0	0	0	03/22/22:12:52:23.207202	4145.531	0	0	anticipation	3	0.5	0	0	dot_starte
41	26	female	8	Probraum	5.5	20	2	gunmancaro	ex	black.PNG	60	0	0	0	0	03/22/22:12:52:23.321896	4145.64	0	0	anticipation	3	0.5	0	0	dot_starte
41	26	female	8	Probraum	5.5	20	2	gunmancaro	ex	black.PNG	60	0	0	0	0	03/22/22:12:52:23.436588	4145.765	0	0	anticipation	3	0.5	0	0	dot_starte
41	26	female	8	Probraum	5.5	20	2	gunmancaro	ex	black.PNG	60	0	0	0	0	03/22/22:12:52:23.550284	4145.875	0	0	anticipation	3	0.5	0	0	dot_starte
41	26	female	8	Probraum	5.5	20	2	gunmancaro	ex	black.PNG	60	0	0	0	0	03/22/22:12:52:23.663981	4145.984	0	0	anticipation	3	0.5	0	0	dot_starte
41	26	female	8	Probraum	5.5	20	2	gunmancaro	ex	black.PNG	60	0	0	0	0	03/22/22:12:52:23.777677	4146.093	0	0	anticipation	3	0.5	0	0	dot_starte
41	26	female	8	Probraum	5.5	20	2	gunmancaro	ex	black.PNG	60	0	0	0	0	03/22/22:12:52:23.893368	4146.218	0	0	anticipation	3	0.5	0	0	dot_starte
41	26	female	8	Probraum	5.5	20	2	gunmancaro	ex	black.PNG	60	0	0	0	0	03/22/22:12:52:24.006067	4146.328	0	0	anticipation	3	0.5	0	0	dot_starte
41	26	female	8	Probraum	5.5	20	2	gunmancaro	ex	black.PNG	60	0	0	0	0	03/22/22:12:52:24.120762	4146.437	0	0	anticipation	3	0.5	0	0	dot_starte
41	26	female	8	Probraum	5.5	20	2	gunmancaro	ex	black.PNG	60	0	0	0	0	03/22/22:12:52:24.234456	4146.562	0	0	anticipation	3	0.5	0	0	dot_starte
41	26	female	8	Probraum	5.5	20	2	gunmancaro	ex	black.PNG	60	0	0	0	0	03/22/22:12:52:24.348152	4146.671	0	0	anticipation	3	0.5	0	0	dot_starte
41	26	female	8	Probraum	5.5	20	2	gunmancaro	ex	black.PNG	60	0	0	0	0	03/22/22:12:52:24.462846	4146.781	0	0	anticipation	3	0.5	0	0	dot_starte
41	26	female	8	Probraum	5.5	20	2	gunmancaro	ex	black.PNG	60	0	0	0	0	03/22/22:12:52:24.576542	4146.906	0	0	anticipation	3	0.5	0	0	dot_starte
41	26	female	8	Probraum	5.5	20	2	gunmancaro	ex	black.PNG	60	0	0	0	0	03/22/22:12:52:24.691234	4147.015	0	0	anticipation	3	0.5	0	0	dot_starte
41	26	female	8	Probraum	5.5	20	2	gunmancaro	ex	black.PNG	60	0	0	0	0	03/22/22:12:52:24.831857	4147.156	0	0	anticipation	3	0.5	0	0	dot_starte
41	26	female	8	Probraum	5.5	20	2	gunmancaro	ex	black.PNG	60	0	0	0	0	03/22/22:12:52:24.945555	4147.265	0	0	anticipation	3	0.5	0	0	dot_starte
41	26	female	8	Probraum	5.5	20	2	gunmancaro	ex	black.PNG	60	0	0	0	0	03/22/22:12:52:25.089170	4147.406	0	0	anticipation	3	0.5	0	0	dot_starte
41	26	female	8	Probraum	5.5	20	2	gunmancaro	ex	black.PNG	60	0	0	0	0	03/22/22:12:52:25.203864	4147.531	0	0	anticipation	3	0.5	0	0	dot_starte
41	26	female	8	Probraum	5.5	20	2	gunmancaro	ex	black.PNG	60	0	0	0	0	03/22/22:12:52:25.317562	4147.64	0	0	anticipation	3	0.5	0	0	dot_starte
41	26	female	8	Probraum	5.5	20	2	gunmancaro	ex	black.PNG	60	0	0	0	0	03/22/22:12:52:25.430259	4147.75	0	0	anticipation	3	0.5	0	0	dot_starte
41	26	female	8	Probraum	5.5	20	2	gunmancaro	ex	black.PNG	60	0	0	0	0	03/22/22:12:52:25.543955	4147.859	0	0	anticipation	3	0.5	0	0	dot_starte
41	26	female	8	Probraum	5.5	20	2	gunmancaro	ex	black.PNG	60	0	0	0	0	03/22/22:12:52:25.658648	4147.984	0	0	anticipation	3	0.5	0	0	dot_starte
41	26	female	8	Probraum	5.5	20	2	gunmancaro	ex	black.PNG	60	0	0	0	0	03/22/22:12:52:25.771348	4148.093	0	0	anticipation	3	0.5	0	0	dot_starte
41	26	female	8	Probraum	5.5	20	2	gunmancaro	ex	black.PNG	60	0	0	0	0	03/22/22:12:52:25.886040	4148.203	0	0	anticipation	3	0.5	0	0	dot_starte
41	26	female	8	Probraum	5.5	20	2	gunmancaro	ex	black.PNG	60	0	0	0	0	03/22/22:12:52:26.000733	4148.328	0	0	anticipation	3	0.5	0	0	dot_starte
41	26	female	8	Probraum	5.5	20	2	gunmancaro	ex	black.PNG	60	0	0	0	0	03/22/22:12:52:26.112435	4148.437	0	0	anticipation	3	0.5	0	0	dot_starte
41	26	female	8	Probraum	5.5	20	2	gunmancaro	ex	black.PNG	60	0	0	0	0	03/22/22:12:52:26.227128	4148.546	0	0	anticipation	3	0.5	0	0	dot_starte
41	26	female	8	Probraum	5.5	20	2	gunmancaro	ex	black.PNG	60	0	0	0	0	03/22/22:12:52:26.341824	4148.671	0	0	anticipation	3	0.5	0	0	dot_starte
41	26	female	8	Probraum	5.5	20	2	gunmancaro	ex	black.PNG	60	0	0	0	0	03/22/22:12:52:26.480449	4148.796	0	0	anticipation	3	0.5	0	0	dot_starte
41	26	female	8	Probraum	5.5	20	2	gunmancaro	ex	black.PNG	60	0	0	0	0	03/22/22:12:52:26.595143	4148.921	0	0	anticipation	3	0.5	0	0	dot_starte
41	26	female	8	Probraum	5.5	20	2	gunmancaro	ex	black.PNG	60	0	0	0	0	03/22/22:12:52:26.708840	4149.031	0	0	anticipation	3	0.5	0	0	dot_starte
41	26	female	8	Probraum	5.5	20	2	gunmancaro	ex	black.PNG	60	0	0	0	0	03/22/22:12:52:26.821538	4149.14	0	0	anticipation	3	0.5	0	0	dot_starte
41	26	female	8	Probraum	5.5	20	2	gunmancaro	ex	black.PNG	60	0	0	0	0	03/22/22:12:52:26.935235	4149.265	0	0	anticipation	3	0.5	0	0	dot_starte
41	26	female	8	Probraum	5.5	20	2	gunmancaro	ex	black.PNG	60	0	0	0	0	03/22/22:12:52:27.049927	4149.375	0	0	anticipation	3	0.5	0	0	dot_starte
41	26	female	8	Probraum	5.5	20	2	gunmancaro	ex	black.PNG	60	0	0	0	0	03/22/22:12:52:27.162625	4149.484	0	0	anticipation	3	0.5	0	0	dot_starte
41	26	female	8	Probraum	5.5	20	2	gunmancaro	ex	black.PNG	60	0	0	0	0	03/22/22:12:52:27.277320	4149.593	0	0	anticipation	3	0.5	0	0	dot_starte
41	26	female	8	Probraum	5.5	20	2	gunmancaro	ex	black.PNG	60	0	0	0	0	03/22/22:12:52:27.392013	4149.718	0	0	anticipation	3	0.5	0	0	dot_starte
41	26	female	8	Probraum	5.5	20	2	gunmancaro	ex	black.PNG	60	0	0	0	0	03/22/22:12:52:27.504712	4149.828	0	0	anticipation	3	0.5	0	0	dot_starte
41	26	female	8	Probraum	5.5	20	2	gunmancaro	ex	black.PNG	60	0	0	0	0	03/22/22:12:52:27.618407	4149.937	0	0	anticipation	3	0.5	0	0	dot_starte
41	26	female	8	Probraum	5.5	20	2	gunmancaro	ex	black.PNG	60	0	0	0	0	03/22/22:12:52:27.733113	4150.062	0	0	anticipation	3	0.5	0	0	dot_starte
41	26	female	8	Probraum	5.5	20	2	gunmancaro	ex	black.PNG	60	0	0	0	0	03/22/22:12:52:27.846796	4150.171	0	0	anticipation	3	0.5	0	0	dot_starte
41	26	female	8	Probraum	5.5	20	2	gunmancaro	ex	black.PNG	60	0	0	0	0	03/22/22:12:52:27.960492	4150.281	0	0	anticipation	3	0.5	0	0	dot_starte
41	26	female	8	Probraum	5.5	20	2	gunmancaro	ex	black.PNG	60	0	0	0	0	03/22/22:12:52:28.075186	4150.39	0	0	anticipation	3	0.5	0	0	dot_starte
41	26	female	8	Probraum	5.5	20	2	gunmancaro	ex	black.PNG	60	0	0	0	0	03/22/22:12:52:28.185889	4150.515	0	0	anticipation	3	0.5	0	0	dot_starte
41	26	female	8	Probraum	5.5	20	2	gunmancaro	ex	black.PNG	60	0	0	0	0	03/22/22:12:52:28.299585	4150.625	0	0	anticipation	3	0.5	0	0	dot_starte
41	26	female	8	Probraum	5.5	20	2	gunmancaro	ex	black.PNG	60	0	0	0	0	03/22/22:12:52:28.414280	4150.734	0	0	anticipation	3	0.5	0	0	dot_starte
41	26	female	8	Probraum	5.5	20	2	gunmancaro	ex	black.PNG	60	0	0	0	0	03/22/22:12:52:28.527975	4150.843	0	0	anticipation	3	0.5	0	0	dot_starte
41	26	female	8	Probraum	5.5	20	2	gunmancaro	ex	black.PNG	60	0	0	0	0	03/22/22:12:52:28.641671	4150.968	0	0	anticipation	3	0.5	0	0	dot_starte
41	26	female	8	Probraum	5.5	20	2	gunmancaro	ex	black.PNG	60	0	0	0	0	03/22/22:12:52:28.754370	4151.078	0	0	anticipation	3	0.5	0	0	dot_starte
41	26	female	8	Probraum	5.5	20	2	gunmancaro	ex	black.PNG	60	0	0	0	0	03/22/22:12:52:28.757363	4151.078	0	0	guy	3	0.5	0	0	dot_starte
41	26	female	8	Probraum	5.5	20	2	gunmancaro	ex	black.PNG	60	0	0	0	0	03/22/22:12:52:28.773322	4151.093	0	0	guy	3	0.5	0	0	dot_starte
41	26	female	8	Probraum	5.5	20	2	gunmancaro	ex	black.PNG	60	0	0	0	0	03/22/22:12:52:28.790277	4151.109	0	0	guy	3	0.5	0	0	dot_starte
41	26	female	8	Probraum	5.5	20	2	gunmancaro	ex	black.PNG	60	0	0	0	0	03/22/22:12:52:28.806234	4151.125	0	0	guy	3	0.5	0	0	dot_starte
41	26	female	8	Probraum	5.5	20	2	gunmancaro	ex	black.PNG	60	0	0	0	0	03/22/22:12:52:28.823186	4151.14	0	0	guy	3	0.5	0	0	dot_starte
41	26	female	8	Probraum	5.5	20	2	gunmancaro	ex	black.PNG	60	0	0	0	0	03/22/22:12:52:28.840141	4151.156	0	0	guy	3	0.5	0	0	dot_starte
41	26	female	8	Probraum	5.5	20	2	gunmancaro	ex	black.PNG	60	0	0	0	0	03/22/22:12:52:28.857095	4151.187	0	0	guy	3	0.5	0	0	dot_starte
41	26	female	8	Probraum	5.5	20	2	gunmancaro	ex	black.PNG	60	0	0	0	0	03/22/22:12:52:28.874050	4151.203	0	0	guy	3	0.5	0	0	dot_starte
41	26	female	8	Probraum	5.5	20	2	gunmancaro	ex	black.PNG	60	0	0	0	0	03/22/22:12:52:28.891006	4151.218	0	0	guy	3	0.5	0	0	dot_starte
41	26	female	8	Probraum	5.5	20	2	gunmancaro	ex	black.PNG	60	0	0	0	0	03/22/22:12:52:28.906963	4151.234	0	0	guy	3	0.5	0	0	dot_starte
41	26	female	8	Probraum	5.5	20	2	gunmancaro	ex	black.PNG	60	0	0	0	0	03/22/22:12:52:28.931896	4151.25	0	0	guy	3	0.5	0	0	dot_starte
41	26	female	8	Probraum	5.5	20	2	gunmancaro	ex	black.PNG	60	0	0	0	0	03/22/22:12:52:28.941868	4151.265	0	0	guy	3	0.5	0	0	dot_starte
41	26	female	8	Probraum	5.5	20	2	gunmancaro	ex	black.PNG	60	0	0	0	0	03/22/22:12:52:28.956828	4151.281	0	0	guy	3	0.5	0	0	dot_starte
41	26	female	8	Probraum	5.5	20	2	gunmancaro	ex	black.PNG	60	0	0	0	0	03/22/22:12:52:28.975787	4151.296	0	0	guy	3	0.5	0	0	dot_starte
41	26	female	8	Probraum	5.5	20	2	gunmancaro	ex	black.PNG	60	0	0	0	0	03/22/22:12:52:28.989742	4151.312	0	0	guy	3	0.5	0	0	dot_starte
41	26	female	8	Probraum	5.5	20	2	gunmancaro	ex	black.PNG	60	0	0	0	0	03/22/22:12:52:29.006695	4151.328	0	0	guy	3	0.5	0	0	dot_starte
41	26	female	8	Probraum	5.5	20	2	gunmancaro	ex	black.PNG	60	0	0	0	0	03/22/22:12:52:29.023649	4151.343	0	0	guy	3	0.5	0	0	dot_starte
41	26	female	8	Probraum	5.5	20	2	gunmancaro	ex	black.PNG	60	0	0	0	0	03/22/22:12:52:29.040606	4151.359	0	0	guy	3	0.5	0	0	dot_starte
41	26	female	8	Probraum	5.5	20	2	gunmancaro	ex	black.PNG	60	0	0	0	0	03/22/22:12:52:29.057561	4151.375	0	0	guy	3	0.5	0	0	dot_starte
41	26	female	8	Probraum	5.5	20	2	gunmancaro	ex	black.PNG	60	0	0	0	0	03/22/22:12:52:29.073517	4151.39	0	0	guy	3	0.5	0	0	dot_starte
41	26	female	8	Probraum	5.5	20	2	gunmancaro	ex	black.PNG	60	0	0	0	0	03/22/22:12:52:29.090472	4151.406	0	0	guy	3	0.5	0	0	dot_starte
41	26	female	8	Probraum	5.5	20	2	gunmancaro	ex	black.PNG	60	0	0	0	0	03/22/22:12:52:29.107427	4151.437	0	0	guy	3	0.5	0	0	dot_starte
41	26	female	8	Probraum	5.5	20	2	gunmancaro	ex	black.PNG	60	0	0	0	0	03/22/22:12:52:29.123383	4151.453	0	0	guy	3	0.5	0	0	dot_starte
41	26	female	8	Probraum	5.5	20	2	gunmancaro	ex	black.PNG	60	0	0	0	0	03/22/22:12:52:29.140337	4151.468	0	0	guy	3	0.5	0	0	dot_starte
41	26	female	8	Probraum	5.5	20	2	gunmancaro	ex	black.PNG	60	0	0	0	0	03/22/22:12:52:29.157292	4151.484	0	0	guy	3	0.5	0	0	dot_starte
41	26	female	8	Probraum	5.5	20	2	gunmancaro	ex	black.PNG	60	0	0	0	0	03/22/22:12:52:29.173251	4151.5	0	0	guy	3	0.5	0	0	dot_starte
41	26	female	8	Probraum	5.5	20	2	gunmancaro	ex	black.PNG	60	0	0	0	0	03/22/22:12:52:29.190204	4151.515	0	0	guy	3	0.5	0	0	dot_starte
41	26	female	8	Probraum	5.5	20	2	gunmancaro	ex	black.PNG	60	0	0	0	0	03/22/22:12:52:29.207159	4151.531	0	0	guy	3	0.5	0	0	dot_starte
41	26	female	8	Probraum	5.5	20	2	gunmancaro	ex	black.PNG	60	0	0	0	0	03/22/22:12:52:29.224114	4151.546	0	0	guy	3	0.5	0	0	dot_starte
41	26	female	8	Probraum	5.5	20	2	gunmancaro	ex	black.PNG	60	0	0	0	0	03/22/22:12:52:29.240071	4151.562	0	0	guy	3	0.5	0	0	dot_starte
41	26	female	8	Probraum	5.5	20	2	gunmancaro	ex	black.PNG	60	0	0	0	0	03/22/22:12:52:29.257028	4151.578	0	0	guy	3	0.5	0	0	dot_starte
41	26	female	8	Probraum	5.5	20	2	gunmancaro	ex	black.PNG	60	0	0	0	0	03/22/22:12:52:29.273982	4151.593	0	0	guy	3	0.5	0	0	dot_starte
41	26	female	8	Probraum	5.5	20	2	gunmancaro	ex	black.PNG	60	0	0	0	0	03/22/22:12:52:29.289939	4151.609	0	0	guy	3	0.5	0	0	dot_starte
41	26	female	8	Probraum	5.5	20	2	gunmancaro	ex	black.PNG	60	0	0	0	0	03/22/22:12:52:29.306894	4151.625	0	0	guy	3	0.5	0	0	dot_starte
41	26	female	8	Probraum	5.5	20	2	gunmancaro	ex	black.PNG	60	0	0	0	0	03/22/22:12:52:29.323848	4151.64	0	0	guy	3	0.5	0	0	dot_starte
41	26	female	8	Probraum	5.5	20	2	gunmancaro	ex	black.PNG	60	0	0	0	0	03/22/22:12:52:29.340803	4151.656	0	0	guy	3	0.5	0	0	dot_starte
41	26	female	8	Probraum	5.5	20	2	gunmancaro	ex	black.PNG	60	0	0	0	0	03/22/22:12:52:29.356759	4151.671	0	0	guy	3	0.5	0	0	dot_starte
41	26	female	8	Probraum	5.5	20	2	gunmancaro	ex	black.PNG	60	0	0	0	0	03/22/22:12:52:29.373714	4151.703	0	0	guy	3	0.5	0	0	dot_starte
41	26	female	8	Probraum	5.5	20	2	gunmancaro	ex	black.PNG	60	0	0	0	0	03/22/22:12:52:29.390670	4151.718	0	0	guy	3	0.5	0	0	dot_starte
41	26	female	8	Probraum	5.5	20	2	gunmancaro	ex	black.PNG	60	0	0	0	0	03/22/22:12:52:29.406626	4151.734	0	0	guy	3	0.5	0	0	dot_starte
41	26	female	8	Probraum	5.5	20	2	gunmancaro	ex	black.PNG	60	0	0	0	0	03/22/22:12:52:29.423581	4151.75	0	0	guy	3	0.5	0	0	dot_starte
41	26	female	8	Probraum	5.5	20	2	gunmancaro	ex	black.PNG	60	0	0	0	0	03/22/22:12:52:29.440535	4151.765	0	0	guy	3	0.5	0	0	dot_starte
41	26	female	8	Probraum	5.5	20	2	gunmancaro	ex	black.PNG	60	0	0	0	0	03/22/22:12:52:29.457490	4151.781	0	0	guy	3	0.5	0	0	dot_starte
41	26	female	8	Probraum	5.5	20	2	gunmancaro	ex	black.PNG	60	0	0	0	0	03/22/22:12:52:29.473447	4151.796	0	0	guy	3	0.5	0	0	dot_starte
41	26	female	8	Probraum	5.5	20	2	gunmancaro	ex	black.PNG	60	0	0	0	0	03/22/22:12:52:29.490402	4151.812	0	0	guy	3	0.5	0	0	dot_starte
41	26	female	8	Probraum	5.5	20	2	gunmancaro	ex	black.PNG	60	0	0	0	0	03/22/22:12:52:29.507357	4151.828	0	0	guy	3	0.5	0	0	dot_starte
41	26	female	8	Probraum	5.5	20	2	gunmancaro	ex	black.PNG	60	0	0	0	0	03/22/22:12:52:29.524313	4151.843	0	0	guy	3	0.5	0	0	dot_starte
41	26	female	8	Probraum	5.5	20	2	gunmancaro	ex	black.PNG	60	0	0	0	0	03/22/22:12:52:29.540269	4151.859	0	0	guy	3	0.5	0	0	dot_starte
41	26	female	8	Probraum	5.5	20	2	gunmancaro	ex	black.PNG	60	0	0	0	0	03/22/22:12:52:29.557225	4151.875	0	0	guy	3	0.5	0	0	dot_starte
41	26	female	8	Probraum	5.5	20	2	gunmancaro	ex	black.PNG	60	0	0	0	0	03/22/22:12:52:29.574180	4151.89	0	0	guy	3	0.5	0	0	dot_starte
41	26	female	8	Probraum	5.5	20	2	gunmancaro	ex	black.PNG	60	0	0	0	0	03/22/22:12:52:29.591138	4151.906	0	0	guy	3	0.5	0	0	dot_starte
41	26	female	8	Probraum	5.5	20	2	gunmancaro	ex	black.PNG	60	0	0	0	0	03/22/22:12:52:29.607094	4151.937	0	0	guy	3	0.5	0	0	dot_starte
41	26	female	8	Probraum	5.5	20	2	gunmancaro	ex	black.PNG	60	0	0	0	0	03/22/22:12:52:29.624047	4151.953	0	0	guy	3	0.5	0	0	dot_starte
41	26	female	8	Probraum	5.5	20	2	gunmancaro	ex	black.PNG	60	0	0	0	0	03/22/22:12:52:29.641003	4151.968	0	0	guy	3	0.5	0	0	dot_starte
41	26	female	8	Probraum	5.5	20	2	gunmancaro	ex	black.PNG	60	0	0	0	0	03/22/22:12:52:29.656960	4151.984	0	0	guy	3	0.5	0	0	dot_starte
41	26	female	8	Probraum	5.5	20	2	gunmancaro	ex	black.PNG	60	0	0	0	0	03/22/22:12:52:29.673913	4152.0	0	0	opp	3	0.5	0	0	dot_starte
41	26	female	8	Probraum	5.5	20	2	gunmancaro	ex	black.PNG	60	0	0	0	0	03/22/22:12:52:29.690867	4152.015	0	0	opp	3	0.5	0	0	dot_starte
41	26	female	8	Probraum	5.5	20	2	gunmancaro	ex	black.PNG	60	0	0	0	0	03/22/22:12:52:29.706825	4152.031	0	0	opp	3	0.5	0	0	dot_starte
41	26	female	8	Probraum	5.5	20	2	gunmancaro	ex	black.PNG	60	0	0	0	0	03/22/22:12:52:29.723778	4152.046	0	0	opp	3	0.5	0	0	dot_starte
41	26	female	8	Probraum	5.5	20	2	gunmancaro	ex	black.PNG	60	0	0	0	0	03/22/22:12:52:29.740733	4152.062	0	0	opp	3	0.5	0	0	dot_starte
41	26	female	8	Probraum	5.5	20	2	gunmancaro	ex	black.PNG	60	0	0	0	0	03/22/22:12:52:29.757689	4152.078	0	0	opp	3	0.5	0	0	dot_starte
41	26	female	8	Probraum	5.5	20	2	gunmancaro	ex	black.PNG	60	0	0	0	0	03/22/22:12:52:29.773644	4152.093	0	0	opp	3	0.5	0	0	dot_starte
41	26	female	8	Probraum	5.5	20	2	gunmancaro	ex	black.PNG	60	0	0	0	0	03/22/22:12:52:29.790602	4152.109	0	0	opp	3	0.5	0	0	dot_starte
41	26	female	8	Probraum	5.5	20	2	gunmancaro	ex	black.PNG	60	0	0	0	0	03/22/22:12:52:29.807557	4152.125	0	0	opp	3	0.5	0	0	dot_starte
41	26	female	8	Probraum	5.5	20	2	gunmancaro	ex	black.PNG	60	0	0	0	0	03/22/22:12:52:29.824510	4152.14	0	0	opp	3	0.5	0	0	dot_starte
41	26	female	8	Probraum	5.5	20	2	gunmancaro	ex	black.PNG	60	0	0	0	0	03/22/22:12:52:29.840514	4152.156	0	0	opp	3	0.5	0	0	dot_starte
41	26	female	8	Probraum	5.5	20	2	gunmancaro	ex	black.PNG	60	0	0	0	0	03/22/22:12:52:29.857420	4152.187	0	0	opp	3	0.5	0	0	dot_starte
41	26	female	8	Probraum	5.5	20	2	gunmancaro	ex	black.PNG	60	0	0	0	0	03/22/22:12:52:29.874376	4152.203	0	0	opp	3	0.5	0	0	dot_starte
41	26	female	8	Probraum	5.5	20	2	gunmancaro	ex	black.PNG	60	0	0	0	0	03/22/22:12:52:29.890333	4152.218	0	0	opp	3	0.5	0	0	dot_starte
41	26	female	8	Probraum	5.5	20	2	gunmancaro	ex	black.PNG	60	0	0	0	0	03/22/22:12:52:29.907287	4152.234	0	0	opp	3	0.5	0	0	dot_starte
41	26	female	8	Probraum	5.5	20	2	gunmancaro	ex	black.PNG	60	0	0	0	0	03/22/22:12:52:29.924241	4152.25	0	0	opp	3	0.5	0	0	dot_starte
41	26	female	8	Probraum	5.5	20	2	gunmancaro	ex	black.PNG	60	0	0	0	0	03/22/22:12:52:29.940201	4152.265	0	0	opp	3	0.5	0	0	dot_starte
41	26	female	8	Probraum	5.5	20	2	gunmancaro	ex	black.PNG	60	0	0	0	0	03/22/22:12:52:29.957154	4152.281	0	0	opp	3	0.5	0	0	dot_starte
41	26	female	8	Probraum	5.5	20	2	gunmancaro	ex	black.PNG	60	0	0	0	0	03/22/22:12:52:29.974108	4152.296	0	0	opp	3	0.5	0	0	dot_starte
41	26	female	8	Probraum	5.5	20	2	gunmancaro	ex	black.PNG	60	0	0	0	0	03/22/22:12:52:29.990065	4152.312	0	0	opp	3	0.5	0	0	dot_starte
41	26	female	8	Probraum	5.5	20	2	gunmancaro	ex	black.PNG	60	0	0	0	0	03/22/22:12:52:30.007021	4152.328	0	0	opp	3	0.5	0	0	dot_starte
41	26	female	8	Probraum	5.5	20	2	gunmancaro	ex	black.PNG	60	0	0	0	0	03/22/22:12:52:30.023976	4152.343	0	0	opp	3	0.5	0	0	dot_starte
41	26	female	8	Probraum	5.5	20	2	gunmancaro	ex	black.PNG	60	0	0	0	0	03/22/22:12:52:30.040930	4152.359	0	0	opp	3	0.5	0	0	dot_starte
41	26	female	8	Probraum	5.5	20	2	gunmancaro	ex	black.PNG	60	0	0	0	0	03/22/22:12:52:30.056887	4152.375	0	0	opp	3	0.5	0	0	dot_starte
41	26	female	8	Probraum	5.5	20	2	gunmancaro	ex	black.PNG	60	0	0	0	0	03/22/22:12:52:30.073843	4152.39	0	0	opp	3	0.5	0	0	dot_starte
41	26	female	8	Probraum	5.5	20	2	gunmancaro	ex	black.PNG	60	0	0	0	0	03/22/22:12:52:30.089799	4152.406	0	0	opp	3	0.5	0	0	dot_starte
41	26	female	8	Probraum	5.5	20	2	gunmancaro	ex	black.PNG	60	0	0	0	0	03/22/22:12:52:30.106755	4152.421	0	0	opp	3	0.5	0	0	dot_starte
41	26	female	8	Probraum	5.5	20	2	gunmancaro	ex	black.PNG	60	0	0	0	0	03/22/22:12:52:30.123710	4152.453	0	0	opp	3	0.5	0	0	dot_starte
41	26	female	8	Probraum	5.5	20	2	gunmancaro	ex	black.PNG	60	0	0	0	0	03/22/22:12:52:30.140664	4152.468	0	0	opp	3	0.5	0	0	dot_starte
41	26	female	8	Probraum	5.5	20	2	gunmancaro	ex	black.PNG	60	0	0	0	0	03/22/22:12:52:30.156622	4152.484	0	0	opp	3	0.5	0	0	dot_starte
41	26	female	8	Probraum	5.5	20	2	gunmancaro	ex	black.PNG	60	0	0	0	0	03/22/22:12:52:30.173576	4152.5	0	0	opp	3	0.5	0	0	dot_starte
41	26	female	8	Probraum	5.5	20	2	gunmancaro	ex	black.PNG	60	0	1	1	0	03/22/22:12:52:30.793917	4153.109	0	I	follow up	3	0.5	0	0	dot_starte
41	26	female	8	Probraum	5.5	20	2	controlguy	ex	yellow.PNG	60	0	0	1	0	03/22/22:12:52:35.898284	4158.218	0	0	onset	3	0.5	0	0	silence
41	26	female	8	Probraum	5.5	20	2	controlguy	ex	yellow.PNG	60	0	0	1	0	03/22/22:12:52:36.024929	4158.343	0	0	anticipation	3	0.5	0	0	silence
41	26	female	8	Probraum	5.5	20	2	controlguy	ex	yellow.PNG	60	0	0	1	0	03/22/22:12:52:36.138628	4158.468	0	0	anticipation	3	0.5	0	0	silence
41	26	female	8	Probraum	5.5	20	2	controlguy	ex	yellow.PNG	60	0	0	1	0	03/22/22:12:52:36.251325	4158.578	0	0	anticipation	3	0.5	0	0	silence
41	26	female	8	Probraum	5.5	20	2	controlguy	ex	yellow.PNG	60	0	0	1	0	03/22/22:12:52:36.365020	4158.687	0	0	anticipation	3	0.5	0	0	silence
41	26	female	8	Probraum	5.5	20	2	controlguy	ex	yellow.PNG	60	0	0	1	0	03/22/22:12:52:36.477720	4158.796	0	0	anticipation	3	0.5	0	0	silence
41	26	female	8	Probraum	5.5	20	2	controlguy	ex	yellow.PNG	60	0	0	1	0	03/22/22:12:52:36.590419	4158.906	0	0	anticipation	3	0.5	0	0	silence
41	26	female	8	Probraum	5.5	20	2	controlguy	ex	yellow.PNG	60	0	0	1	0	03/22/22:12:52:36.703118	4159.031	0	0	anticipation	3	0.5	0	0	silence
41	26	female	8	Probraum	5.5	20	2	controlguy	ex	yellow.PNG	60	0	0	1	0	03/22/22:12:52:36.816814	4159.14	0	0	anticipation	3	0.5	0	0	silence
41	26	female	8	Probraum	5.5	20	2	controlguy	ex	yellow.PNG	60	0	0	1	0	03/22/22:12:52:36.929511	4159.25	0	0	anticipation	3	0.5	0	0	silence
41	26	female	8	Probraum	5.5	20	2	controlguy	ex	yellow.PNG	60	0	0	1	0	03/22/22:12:52:37.042209	4159.359	0	0	anticipation	3	0.5	0	0	silence
41	26	female	8	Probraum	5.5	20	2	controlguy	ex	yellow.PNG	60	0	0	1	0	03/22/22:12:52:37.154908	4159.484	0	0	anticipation	3	0.5	0	0	silence
41	26	female	8	Probraum	5.5	20	2	controlguy	ex	yellow.PNG	60	0	0	1	0	03/22/22:12:52:37.267607	4159.593	0	0	anticipation	3	0.5	0	0	silence
41	26	female	8	Probraum	5.5	20	2	controlguy	ex	yellow.PNG	60	0	0	1	0	03/22/22:12:52:37.381304	4159.703	0	0	anticipation	3	0.5	0	0	silence
41	26	female	8	Probraum	5.5	20	2	controlguy	ex	yellow.PNG	60	0	0	1	0	03/22/22:12:52:37.493005	4159.812	0	0	anticipation	3	0.5	0	0	silence
41	26	female	8	Probraum	5.5	20	2	controlguy	ex	yellow.PNG	60	0	0	1	0	03/22/22:12:52:37.606700	4159.921	0	0	anticipation	3	0.5	0	0	silence
41	26	female	8	Probraum	5.5	20	2	controlguy	ex	yellow.PNG	60	0	0	1	0	03/22/22:12:52:37.721394	4160.046	0	0	anticipation	3	0.5	0	0	silence
41	26	female	8	Probraum	5.5	20	2	controlguy	ex	yellow.PNG	60	0	0	1	0	03/22/22:12:52:37.834093	4160.156	0	0	anticipation	3	0.5	0	0	silence
41	26	female	8	Probraum	5.5	20	2	controlguy	ex	yellow.PNG	60	0	0	1	0	03/22/22:12:52:37.947788	4160.265	0	0	anticipation	3	0.5	0	0	silence
41	26	female	8	Probraum	5.5	20	2	controlguy	ex	yellow.PNG	60	0	0	1	0	03/22/22:12:52:38.061485	4160.39	0	0	anticipation	3	0.5	0	0	silence
41	26	female	8	Probraum	5.5	20	2	controlguy	ex	yellow.PNG	60	0	0	1	0	03/22/22:12:52:38.172188	4160.5	0	0	anticipation	3	0.5	0	0	silence
41	26	female	8	Probraum	5.5	20	2	controlguy	ex	yellow.PNG	60	0	0	1	0	03/22/22:12:52:38.287880	4160.609	0	0	anticipation	3	0.5	0	0	silence
41	26	female	8	Probraum	5.5	20	2	controlguy	ex	yellow.PNG	60	0	0	1	0	03/22/22:12:52:38.401577	4160.718	0	0	anticipation	3	0.5	0	0	silence
41	26	female	8	Probraum	5.5	20	2	controlguy	ex	yellow.PNG	60	0	0	1	0	03/22/22:12:52:38.514274	4160.843	0	0	anticipation	3	0.5	0	0	silence
41	26	female	8	Probraum	5.5	20	2	controlguy	ex	yellow.PNG	60	0	0	1	0	03/22/22:12:52:38.627970	4160.953	0	0	anticipation	3	0.5	0	0	silence
41	26	female	8	Probraum	5.5	20	2	controlguy	ex	yellow.PNG	60	0	0	1	0	03/22/22:12:52:38.742663	4161.062	0	0	anticipation	3	0.5	0	0	silence
41	26	female	8	Probraum	5.5	20	2	controlguy	ex	yellow.PNG	60	0	0	1	0	03/22/22:12:52:38.857358	4161.187	0	0	anticipation	3	0.5	0	0	silence
41	26	female	8	Probraum	5.5	20	2	controlguy	ex	yellow.PNG	60	0	0	1	0	03/22/22:12:52:38.970055	4161.296	0	0	anticipation	3	0.5	0	0	silence
41	26	female	8	Probraum	5.5	20	2	controlguy	ex	yellow.PNG	60	0	0	1	0	03/22/22:12:52:39.084748	4161.406	0	0	anticipation	3	0.5	0	0	silence
41	26	female	8	Probraum	5.5	20	2	controlguy	ex	yellow.PNG	60	0	0	1	0	03/22/22:12:52:39.195454	4161.515	0	0	anticipation	3	0.5	0	0	silence
41	26	female	8	Probraum	5.5	20	2	controlguy	ex	yellow.PNG	60	0	0	1	0	03/22/22:12:52:39.308152	4161.625	0	0	anticipation	3	0.5	0	0	silence
41	26	female	8	Probraum	5.5	20	2	controlguy	ex	yellow.PNG	60	0	0	1	0	03/22/22:12:52:39.419853	4161.75	0	0	anticipation	3	0.5	0	0	silence
41	26	female	8	Probraum	5.5	20	2	controlguy	ex	yellow.PNG	60	0	0	1	0	03/22/22:12:52:39.532552	4161.859	0	0	anticipation	3	0.5	0	0	silence
41	26	female	8	Probraum	5.5	20	2	controlguy	ex	yellow.PNG	60	0	0	1	0	03/22/22:12:52:39.644255	4161.968	0	0	anticipation	3	0.5	0	0	silence
41	26	female	8	Probraum	5.5	20	2	controlguy	ex	yellow.PNG	60	0	0	1	0	03/22/22:12:52:39.757949	4162.078	0	0	anticipation	3	0.5	0	0	silence
41	26	female	8	Probraum	5.5	20	2	controlguy	ex	yellow.PNG	60	0	0	1	0	03/22/22:12:52:39.870649	4162.187	0	0	anticipation	3	0.5	0	0	silence
41	26	female	8	Probraum	5.5	20	2	controlguy	ex	yellow.PNG	60	0	0	1	0	03/22/22:12:52:39.984343	4162.312	0	0	anticipation	3	0.5	0	0	silence
41	26	female	8	Probraum	5.5	20	2	controlguy	ex	yellow.PNG	60	0	0	1	0	03/22/22:12:52:40.096046	4162.421	0	0	anticipation	3	0.5	0	0	silence
41	26	female	8	Probraum	5.5	20	2	controlguy	ex	yellow.PNG	60	0	0	1	0	03/22/22:12:52:40.208743	4162.531	0	0	anticipation	3	0.5	0	0	silence
41	26	female	8	Probraum	5.5	20	2	controlguy	ex	yellow.PNG	60	0	0	1	0	03/22/22:12:52:40.322439	4162.64	0	0	anticipation	3	0.5	0	0	silence
41	26	female	8	Probraum	5.5	20	2	controlguy	ex	yellow.PNG	60	0	0	1	0	03/22/22:12:52:40.434141	4162.75	0	0	anticipation	3	0.5	0	0	silence
41	26	female	8	Probraum	5.5	20	2	controlguy	ex	yellow.PNG	60	0	0	1	0	03/22/22:12:52:40.547836	4162.875	0	0	anticipation	3	0.5	0	0	silence
41	26	female	8	Probraum	5.5	20	2	controlguy	ex	yellow.PNG	60	0	0	1	0	03/22/22:12:52:40.659538	4162.984	0	0	anticipation	3	0.5	0	0	silence
41	26	female	8	Probraum	5.5	20	2	controlguy	ex	yellow.PNG	60	0	0	1	0	03/22/22:12:52:40.772238	4163.093	0	0	anticipation	3	0.5	0	0	silence
41	26	female	8	Probraum	5.5	20	2	controlguy	ex	yellow.PNG	60	0	0	1	0	03/22/22:12:52:40.884936	4163.203	0	0	anticipation	3	0.5	0	0	silence
41	26	female	8	Probraum	5.5	20	2	controlguy	ex	yellow.PNG	60	0	0	1	0	03/22/22:12:52:40.998632	4163.328	0	0	anticipation	3	0.5	0	0	silence
41	26	female	8	Probraum	5.5	20	2	controlguy	ex	yellow.PNG	60	0	0	1	0	03/22/22:12:52:41.110334	4163.437	0	0	anticipation	3	0.5	0	0	silence
41	26	female	8	Probraum	5.5	20	2	controlguy	ex	yellow.PNG	60	0	0	1	0	03/22/22:12:52:41.224029	4163.546	0	0	anticipation	3	0.5	0	0	silence
41	26	female	8	Probraum	5.5	20	2	controlguy	ex	yellow.PNG	60	0	0	1	0	03/22/22:12:52:41.335732	4163.656	0	0	anticipation	3	0.5	0	0	silence
41	26	female	8	Probraum	5.5	20	2	controlguy	ex	yellow.PNG	60	0	0	1	0	03/22/22:12:52:41.449427	4163.765	0	0	anticipation	3	0.5	0	0	silence
41	26	female	8	Probraum	5.5	20	2	controlguy	ex	yellow.PNG	60	0	0	1	0	03/22/22:12:52:41.561128	4163.89	0	0	anticipation	3	0.5	0	0	silence
41	26	female	8	Probraum	5.5	20	2	controlguy	ex	yellow.PNG	60	0	0	1	0	03/22/22:12:52:41.673826	4164.0	0	0	anticipation	3	0.5	0	0	silence
41	26	female	8	Probraum	5.5	20	2	controlguy	ex	yellow.PNG	60	0	0	1	0	03/22/22:12:52:41.786526	4164.109	0	0	anticipation	3	0.5	0	0	silence
41	26	female	8	Probraum	5.5	20	2	controlguy	ex	yellow.PNG	60	0	0	1	0	03/22/22:12:52:41.900220	4164.218	0	0	anticipation	3	0.5	0	0	silence
41	26	female	8	Probraum	5.5	20	2	controlguy	ex	yellow.PNG	60	0	0	1	0	03/22/22:12:52:42.012921	4164.328	0	0	anticipation	3	0.5	0	0	silence
41	26	female	8	Probraum	5.5	20	2	controlguy	ex	yellow.PNG	60	0	0	1	0	03/22/22:12:52:42.023890	4164.343	0	0	guy	3	0.5	0	0	silence
41	26	female	8	Probraum	5.5	20	2	controlguy	ex	yellow.PNG	60	0	0	1	0	03/22/22:12:52:42.040846	4164.359	0	0	guy	3	0.5	0	0	silence
41	26	female	8	Probraum	5.5	20	2	controlguy	ex	yellow.PNG	60	0	0	1	0	03/22/22:12:52:42.057799	4164.375	0	0	guy	3	0.5	0	0	silence
41	26	female	8	Probraum	5.5	20	2	controlguy	ex	yellow.PNG	60	0	0	1	0	03/22/22:12:52:42.073756	4164.39	0	0	guy	3	0.5	0	0	silence
41	26	female	8	Probraum	5.5	20	2	controlguy	ex	yellow.PNG	60	0	0	1	0	03/22/22:12:52:42.090712	4164.406	0	0	guy	3	0.5	0	0	silence
41	26	female	8	Probraum	5.5	20	2	controlguy	ex	yellow.PNG	60	0	0	1	0	03/22/22:12:52:42.106668	4164.421	0	0	guy	3	0.5	0	0	silence
41	26	female	8	Probraum	5.5	20	2	controlguy	ex	yellow.PNG	60	0	0	1	0	03/22/22:12:52:42.123623	4164.453	0	0	guy	3	0.5	0	0	silence
41	26	female	8	Probraum	5.5	20	2	controlguy	ex	yellow.PNG	60	0	0	1	0	03/22/22:12:52:42.140578	4164.468	0	0	guy	3	0.5	0	0	silence
41	26	female	8	Probraum	5.5	20	2	controlguy	ex	yellow.PNG	60	0	0	1	0	03/22/22:12:52:42.157532	4164.484	0	0	guy	3	0.5	0	0	silence
41	26	female	8	Probraum	5.5	20	2	controlguy	ex	yellow.PNG	60	0	0	1	0	03/22/22:12:52:42.173491	4164.5	0	0	guy	3	0.5	0	0	silence
41	26	female	8	Probraum	5.5	20	2	controlguy	ex	yellow.PNG	60	0	0	1	0	03/22/22:12:52:42.190445	4164.515	0	0	guy	3	0.5	0	0	silence
41	26	female	8	Probraum	5.5	20	2	controlguy	ex	yellow.PNG	60	0	0	1	0	03/22/22:12:52:42.207401	4164.531	0	0	guy	3	0.5	0	0	silence
41	26	female	8	Probraum	5.5	20	2	controlguy	ex	yellow.PNG	60	0	0	1	0	03/22/22:12:52:42.224354	4164.546	0	0	guy	3	0.5	0	0	silence
41	26	female	8	Probraum	5.5	20	2	controlguy	ex	yellow.PNG	60	0	0	1	0	03/22/22:12:52:42.240311	4164.562	0	0	guy	3	0.5	0	0	silence
41	26	female	8	Probraum	5.5	20	2	controlguy	ex	yellow.PNG	60	0	0	1	0	03/22/22:12:52:42.257266	4164.578	0	0	guy	3	0.5	0	0	silence
41	26	female	8	Probraum	5.5	20	2	controlguy	ex	yellow.PNG	60	0	0	1	0	03/22/22:12:52:42.274220	4164.593	0	0	guy	3	0.5	0	0	silence
41	26	female	8	Probraum	5.5	20	2	controlguy	ex	yellow.PNG	60	0	0	1	0	03/22/22:12:52:42.290179	4164.609	0	0	guy	3	0.5	0	0	silence
41	26	female	8	Probraum	5.5	20	2	controlguy	ex	yellow.PNG	60	0	0	1	0	03/22/22:12:52:42.309128	4164.625	0	0	guy	3	0.5	0	0	silence
41	26	female	8	Probraum	5.5	20	2	controlguy	ex	yellow.PNG	60	0	0	1	0	03/22/22:12:52:42.324088	4164.64	0	0	guy	3	0.5	0	0	silence
41	26	female	8	Probraum	5.5	20	2	controlguy	ex	yellow.PNG	60	0	0	1	0	03/22/22:12:52:42.340045	4164.656	0	0	guy	3	0.5	0	0	silence
41	26	female	8	Probraum	5.5	20	2	controlguy	ex	yellow.PNG	60	0	0	1	0	03/22/22:12:52:42.356999	4164.687	0	0	guy	3	0.5	0	0	silence
41	26	female	8	Probraum	5.5	20	2	controlguy	ex	yellow.PNG	60	0	0	1	0	03/22/22:12:52:42.373954	4164.703	0	0	guy	3	0.5	0	0	silence
41	26	female	8	Probraum	5.5	20	2	controlguy	ex	yellow.PNG	60	0	0	1	0	03/22/22:12:52:42.390909	4164.718	0	0	guy	3	0.5	0	0	silence
41	26	female	8	Probraum	5.5	20	2	controlguy	ex	yellow.PNG	60	0	0	1	0	03/22/22:12:52:42.406865	4164.734	0	0	guy	3	0.5	0	0	silence
41	26	female	8	Probraum	5.5	20	2	controlguy	ex	yellow.PNG	60	0	0	1	0	03/22/22:12:52:42.423820	4164.75	0	0	guy	3	0.5	0	0	silence
41	26	female	8	Probraum	5.5	20	2	controlguy	ex	yellow.PNG	60	0	0	1	0	03/22/22:12:52:42.440775	4164.765	0	0	guy	3	0.5	0	0	silence
41	26	female	8	Probraum	5.5	20	2	controlguy	ex	yellow.PNG	60	0	0	1	0	03/22/22:12:52:42.457730	4164.781	0	0	guy	3	0.5	0	0	silence
41	26	female	8	Probraum	5.5	20	2	controlguy	ex	yellow.PNG	60	0	0	1	0	03/22/22:12:52:42.474684	4164.796	0	0	guy	3	0.5	0	0	silence
41	26	female	8	Probraum	5.5	20	2	controlguy	ex	yellow.PNG	60	0	0	1	0	03/22/22:12:52:42.490642	4164.812	0	0	guy	3	0.5	0	0	silence
41	26	female	8	Probraum	5.5	20	2	controlguy	ex	yellow.PNG	60	0	0	1	0	03/22/22:12:52:42.507596	4164.828	0	0	guy	3	0.5	0	0	silence
41	26	female	8	Probraum	5.5	20	2	controlguy	ex	yellow.PNG	60	0	0	1	0	03/22/22:12:52:42.523554	4164.843	0	0	guy	3	0.5	0	0	silence
41	26	female	8	Probraum	5.5	20	2	controlguy	ex	yellow.PNG	60	0	0	1	0	03/22/22:12:52:42.540508	4164.859	0	0	guy	3	0.5	0	0	silence
41	26	female	8	Probraum	5.5	20	2	controlguy	ex	yellow.PNG	60	0	0	1	0	03/22/22:12:52:42.557464	4164.875	0	0	guy	3	0.5	0	0	silence
41	26	female	8	Probraum	5.5	20	2	controlguy	ex	yellow.PNG	60	0	0	1	0	03/22/22:12:52:42.574418	4164.89	0	0	guy	3	0.5	0	0	silence
41	26	female	8	Probraum	5.5	20	2	controlguy	ex	yellow.PNG	60	0	0	1	0	03/22/22:12:52:42.590375	4164.906	0	0	guy	3	0.5	0	0	silence
41	26	female	8	Probraum	5.5	20	2	controlguy	ex	yellow.PNG	60	0	0	1	0	03/22/22:12:52:42.607332	4164.937	0	0	guy	3	0.5	0	0	silence
41	26	female	8	Probraum	5.5	20	2	controlguy	ex	yellow.PNG	60	0	0	1	0	03/22/22:12:52:42.624286	4164.953	0	0	guy	3	0.5	0	0	silence
41	26	female	8	Probraum	5.5	20	2	controlguy	ex	yellow.PNG	60	0	0	1	0	03/22/22:12:52:42.640242	4164.968	0	0	guy	3	0.5	0	0	silence
41	26	female	8	Probraum	5.5	20	2	controlguy	ex	yellow.PNG	60	0	0	1	0	03/22/22:12:52:42.657199	4164.984	0	0	guy	3	0.5	0	0	silence
41	26	female	8	Probraum	5.5	20	2	controlguy	ex	yellow.PNG	60	0	0	1	0	03/22/22:12:52:42.674151	4165.0	0	0	guy	3	0.5	0	0	silence
41	26	female	8	Probraum	5.5	20	2	controlguy	ex	yellow.PNG	60	0	0	1	0	03/22/22:12:52:42.690109	4165.015	0	0	guy	3	0.5	0	0	silence
41	26	female	8	Probraum	5.5	20	2	controlguy	ex	yellow.PNG	60	0	0	1	0	03/22/22:12:52:42.707063	4165.031	0	0	guy	3	0.5	0	0	silence
41	26	female	8	Probraum	5.5	20	2	controlguy	ex	yellow.PNG	60	0	0	1	0	03/22/22:12:52:42.724018	4165.046	0	0	guy	3	0.5	0	0	silence
41	26	female	8	Probraum	5.5	20	2	controlguy	ex	yellow.PNG	60	0	0	1	0	03/22/22:12:52:42.740973	4165.062	0	0	guy	3	0.5	0	0	silence
41	26	female	8	Probraum	5.5	20	2	controlguy	ex	yellow.PNG	60	0	0	1	0	03/22/22:12:52:42.756930	4165.078	0	0	guy	3	0.5	0	0	silence
41	26	female	8	Probraum	5.5	20	2	controlguy	ex	yellow.PNG	60	0	0	1	0	03/22/22:12:52:42.773884	4165.093	0	0	guy	3	0.5	0	0	silence
41	26	female	8	Probraum	5.5	20	2	controlguy	ex	yellow.PNG	60	0	0	1	0	03/22/22:12:52:42.790839	4165.109	0	0	guy	3	0.5	0	0	silence
41	26	female	8	Probraum	5.5	20	2	controlguy	ex	yellow.PNG	60	0	0	1	0	03/22/22:12:52:42.806797	4165.125	0	0	guy	3	0.5	0	0	silence
41	26	female	8	Probraum	5.5	20	2	controlguy	ex	yellow.PNG	60	0	0	1	0	03/22/22:12:52:42.823753	4165.14	0	0	guy	3	0.5	0	0	silence
41	26	female	8	Probraum	5.5	20	2	controlguy	ex	yellow.PNG	60	0	0	1	0	03/22/22:12:52:42.840707	4165.156	0	0	guy	3	0.5	0	0	silence
41	26	female	8	Probraum	5.5	20	2	controlguy	ex	yellow.PNG	60	0	0	1	0	03/22/22:12:52:42.857661	4165.187	0	0	guy	3	0.5	0	0	silence
41	26	female	8	Probraum	5.5	20	2	controlguy	ex	yellow.PNG	60	0	0	1	0	03/22/22:12:52:42.873619	4165.203	0	0	guy	3	0.5	0	0	silence
41	26	female	8	Probraum	5.5	20	2	controlguy	ex	yellow.PNG	60	0	0	1	0	03/22/22:12:52:42.890573	4165.218	0	0	guy	3	0.5	0	0	silence
41	26	female	8	Probraum	5.5	20	2	controlguy	ex	yellow.PNG	60	0	0	1	0	03/22/22:12:52:42.907528	4165.234	0	0	guy	3	0.5	0	0	silence
41	26	female	8	Probraum	5.5	20	2	controlguy	ex	yellow.PNG	60	0	0	1	0	03/22/22:12:52:42.923486	4165.25	0	0	guy	3	0.5	0	0	silence
41	26	female	8	Probraum	5.5	20	2	controlguy	ex	yellow.PNG	60	0	0	1	0	03/22/22:12:52:42.940443	4165.265	0	0	opp	3	0.5	0	0	silence
41	26	female	8	Probraum	5.5	20	2	controlguy	ex	yellow.PNG	60	0	0	1	0	03/22/22:12:52:42.957394	4165.281	0	0	opp	3	0.5	0	0	silence
41	26	female	8	Probraum	5.5	20	2	controlguy	ex	yellow.PNG	60	0	0	1	0	03/22/22:12:52:42.974348	4165.296	0	0	opp	3	0.5	0	0	silence
41	26	female	8	Probraum	5.5	20	2	controlguy	ex	yellow.PNG	60	0	0	1	0	03/22/22:12:52:42.990306	4165.312	0	0	opp	3	0.5	0	0	silence
41	26	female	8	Probraum	5.5	20	2	controlguy	ex	yellow.PNG	60	0	0	1	0	03/22/22:12:52:43.007261	4165.328	0	0	opp	3	0.5	0	0	silence
41	26	female	8	Probraum	5.5	20	2	controlguy	ex	yellow.PNG	60	0	0	1	0	03/22/22:12:52:43.024215	4165.343	0	0	opp	3	0.5	0	0	silence
41	26	female	8	Probraum	5.5	20	2	controlguy	ex	yellow.PNG	60	0	0	1	0	03/22/22:12:52:43.040174	4165.359	0	0	opp	3	0.5	0	0	silence
41	26	female	8	Probraum	5.5	20	2	controlguy	ex	yellow.PNG	60	0	0	1	0	03/22/22:12:52:43.057127	4165.375	0	0	opp	3	0.5	0	0	silence
41	26	female	8	Probraum	5.5	20	2	controlguy	ex	yellow.PNG	60	0	0	1	0	03/22/22:12:52:43.074082	4165.39	0	0	opp	3	0.5	0	0	silence
41	26	female	8	Probraum	5.5	20	2	controlguy	ex	yellow.PNG	60	0	0	1	0	03/22/22:12:52:43.090040	4165.406	0	0	opp	3	0.5	0	0	silence
41	26	female	8	Probraum	5.5	20	2	controlguy	ex	yellow.PNG	60	0	0	1	0	03/22/22:12:52:43.106996	4165.437	0	0	opp	3	0.5	0	0	silence
41	26	female	8	Probraum	5.5	20	2	controlguy	ex	yellow.PNG	60	0	0	1	0	03/22/22:12:52:43.123948	4165.453	0	0	opp	3	0.5	0	0	silence
41	26	female	8	Probraum	5.5	20	2	controlguy	ex	yellow.PNG	60	0	0	1	0	03/22/22:12:52:43.139907	4165.468	0	0	opp	3	0.5	0	0	silence
41	26	female	8	Probraum	5.5	20	2	controlguy	ex	yellow.PNG	60	0	0	1	0	03/22/22:12:52:43.156861	4165.484	0	0	opp	3	0.5	0	0	silence
41	26	female	8	Probraum	5.5	20	2	controlguy	ex	yellow.PNG	60	0	0	1	0	03/22/22:12:52:43.173816	4165.5	0	0	opp	3	0.5	0	0	silence
41	26	female	8	Probraum	5.5	20	2	controlguy	ex	yellow.PNG	60	0	0	1	0	03/22/22:12:52:43.190770	4165.515	0	0	opp	3	0.5	0	0	silence
41	26	female	8	Probraum	5.5	20	2	controlguy	ex	yellow.PNG	60	0	0	1	0	03/22/22:12:52:43.206728	4165.531	0	0	opp	3	0.5	0	0	silence
41	26	female	8	Probraum	5.5	20	2	controlguy	ex	yellow.PNG	60	0	0	1	0	03/22/22:12:52:43.223682	4165.546	0	0	opp	3	0.5	0	0	silence
41	26	female	8	Probraum	5.5	20	2	controlguy	ex	yellow.PNG	60	0	0	1	0	03/22/22:12:52:43.240636	4165.562	0	0	opp	3	0.5	0	0	silence
41	26	female	8	Probraum	5.5	20	2	controlguy	ex	yellow.PNG	60	0	0	1	0	03/22/22:12:52:43.257592	4165.578	0	0	opp	3	0.5	0	0	silence
41	26	female	8	Probraum	5.5	20	2	controlguy	ex	yellow.PNG	60	0	0	1	0	03/22/22:12:52:43.273549	4165.593	0	0	opp	3	0.5	0	0	silence
41	26	female	8	Probraum	5.5	20	2	controlguy	ex	yellow.PNG	60	0	0	1	0	03/22/22:12:52:43.290505	4165.609	0	0	opp	3	0.5	0	0	silence
41	26	female	8	Probraum	5.5	20	2	controlguy	ex	yellow.PNG	60	0	0	1	0	03/22/22:12:52:43.307458	4165.625	0	0	opp	3	0.5	0	0	silence
41	26	female	8	Probraum	5.5	20	2	controlguy	ex	yellow.PNG	60	0	0	1	0	03/22/22:12:52:43.323415	4165.64	0	0	opp	3	0.5	0	0	silence
41	26	female	8	Probraum	5.5	20	2	controlguy	ex	yellow.PNG	60	0	0	1	0	03/22/22:12:52:43.340370	4165.656	0	0	opp	3	0.5	0	0	silence
41	26	female	8	Probraum	5.5	20	2	controlguy	ex	yellow.PNG	60	0	0	1	0	03/22/22:12:52:43.357325	4165.687	0	0	opp	3	0.5	0	0	silence
41	26	female	8	Probraum	5.5	20	2	controlguy	ex	yellow.PNG	60	0	0	1	0	03/22/22:12:52:43.374279	4165.703	0	0	opp	3	0.5	0	0	silence
41	26	female	8	Probraum	5.5	20	2	controlguy	ex	yellow.PNG	60	0	0	1	0	03/22/22:12:52:43.390236	4165.718	0	0	opp	3	0.5	0	0	silence
41	26	female	8	Probraum	5.5	20	2	controlguy	ex	yellow.PNG	60	0	0	1	0	03/22/22:12:52:43.407191	4165.734	0	0	opp	3	0.5	0	0	silence
41	26	female	8	Probraum	5.5	20	2	controlguy	ex	yellow.PNG	60	0	0	1	0	03/22/22:12:52:43.424146	4165.75	0	0	opp	3	0.5	0	0	silence
41	26	female	8	Probraum	5.5	20	2	controlguy	ex	yellow.PNG	60	0	0	1	0	03/22/22:12:52:43.440103	4165.765	0	0	opp	3	0.5	0	0	silence
41	26	female	8	Probraum	5.5	20	2	controlguy	ex	yellow.PNG	60	0	0	1	0	03/22/22:12:52:43.457058	4165.781	0	C	follow up	3	0.5	0	0	silence
41	26	female	8	Probraum	5.5	20	2	gunmanbw	ex	black.PNG	60	0	0	1	0	03/22/22:12:52:48.560413	4170.89	0	0	onset	3	0.5	0	0	iti_startle
41	26	female	8	Probraum	5.5	20	2	gunmanbw	ex	black.PNG	60	0	0	1	0	03/22/22:12:52:48.684082	4171.0	0	0	anticipation	3	0.5	0	0	iti_startle
41	26	female	8	Probraum	5.5	20	2	gunmanbw	ex	black.PNG	60	0	0	1	0	03/22/22:12:52:48.799772	4171.125	0	0	anticipation	3	0.5	0	0	iti_startle
41	26	female	8	Probraum	5.5	20	2	gunmanbw	ex	black.PNG	60	0	0	1	0	03/22/22:12:52:48.914466	4171.234	0	0	anticipation	3	0.5	0	0	iti_startle
41	26	female	8	Probraum	5.5	20	2	gunmanbw	ex	black.PNG	60	0	0	1	0	03/22/22:12:52:49.029159	4171.359	0	0	anticipation	3	0.5	0	0	iti_startle
41	26	female	8	Probraum	5.5	20	2	gunmanbw	ex	black.PNG	60	0	0	1	0	03/22/22:12:52:49.139863	4171.468	0	0	anticipation	3	0.5	0	0	iti_startle
41	26	female	8	Probraum	5.5	20	2	gunmanbw	ex	black.PNG	60	0	0	1	0	03/22/22:12:52:49.253561	4171.578	0	0	anticipation	3	0.5	0	0	iti_startle
41	26	female	8	Probraum	5.5	20	2	gunmanbw	ex	black.PNG	60	0	0	1	0	03/22/22:12:52:49.365261	4171.687	0	0	anticipation	3	0.5	0	0	iti_startle
41	26	female	8	Probraum	5.5	20	2	gunmanbw	ex	black.PNG	60	0	0	1	0	03/22/22:12:52:49.478957	4171.796	0	0	anticipation	3	0.5	0	0	iti_startle
41	26	female	8	Probraum	5.5	20	2	gunmanbw	ex	black.PNG	60	0	0	1	0	03/22/22:12:52:49.592653	4171.921	0	0	anticipation	3	0.5	0	0	iti_startle
41	26	female	8	Probraum	5.5	20	2	gunmanbw	ex	black.PNG	60	0	0	1	0	03/22/22:12:52:49.707347	4172.031	0	0	anticipation	3	0.5	0	0	iti_startle
41	26	female	8	Probraum	5.5	20	2	gunmanbw	ex	black.PNG	60	0	0	1	0	03/22/22:12:52:49.820044	4172.14	0	0	anticipation	3	0.5	0	0	iti_startle
41	26	female	8	Probraum	5.5	20	2	gunmanbw	ex	black.PNG	60	0	0	1	0	03/22/22:12:52:49.932743	4172.25	0	0	anticipation	3	0.5	0	0	iti_startle
41	26	female	8	Probraum	5.5	20	2	gunmanbw	ex	black.PNG	60	0	0	1	0	03/22/22:12:52:50.046440	4172.375	0	0	anticipation	3	0.5	0	0	iti_startle
41	26	female	8	Probraum	5.5	20	2	gunmanbw	ex	black.PNG	60	0	0	1	0	03/22/22:12:52:50.160135	4172.484	0	0	anticipation	3	0.5	0	0	iti_startle
41	26	female	8	Probraum	5.5	20	2	gunmanbw	ex	black.PNG	60	0	0	1	0	03/22/22:12:52:50.272836	4172.593	0	0	anticipation	3	0.5	0	0	iti_startle
41	26	female	8	Probraum	5.5	20	2	gunmanbw	ex	black.PNG	60	0	0	1	0	03/22/22:12:52:50.385533	4172.703	0	0	anticipation	3	0.5	0	0	iti_startle
41	26	female	8	Probraum	5.5	20	2	gunmanbw	ex	black.PNG	60	0	0	1	0	03/22/22:12:52:50.498231	4172.828	0	0	anticipation	3	0.5	0	0	iti_startle
41	26	female	8	Probraum	5.5	20	2	gunmanbw	ex	black.PNG	60	0	0	1	0	03/22/22:12:52:50.610941	4172.937	0	0	anticipation	3	0.5	0	0	iti_startle
41	26	female	8	Probraum	5.5	20	2	gunmanbw	ex	black.PNG	60	0	0	1	0	03/22/22:12:52:50.723629	4173.046	0	0	anticipation	3	0.5	0	0	iti_startle
41	26	female	8	Probraum	5.5	20	2	gunmanbw	ex	black.PNG	60	0	0	1	0	03/22/22:12:52:50.836329	4173.156	0	0	anticipation	3	0.5	0	0	iti_startle
41	26	female	8	Probraum	5.5	20	2	gunmanbw	ex	black.PNG	60	0	0	1	0	03/22/22:12:52:50.950023	4173.265	0	0	anticipation	3	0.5	0	0	iti_startle
41	26	female	8	Probraum	5.5	20	2	gunmanbw	ex	black.PNG	60	0	0	1	0	03/22/22:12:52:51.062722	4173.39	0	0	anticipation	3	0.5	0	0	iti_startle
41	26	female	8	Probraum	5.5	20	2	gunmanbw	ex	black.PNG	60	0	0	1	0	03/22/22:12:52:51.175421	4173.5	0	0	anticipation	3	0.5	0	0	iti_startle
41	26	female	8	Probraum	5.5	20	2	gunmanbw	ex	black.PNG	60	0	0	1	0	03/22/22:12:52:51.288119	4173.609	0	0	anticipation	3	0.5	0	0	iti_startle
41	26	female	8	Probraum	5.5	20	2	gunmanbw	ex	black.PNG	60	0	0	1	0	03/22/22:12:52:51.401816	4173.718	0	0	anticipation	3	0.5	0	0	iti_startle
41	26	female	8	Probraum	5.5	20	2	gunmanbw	ex	black.PNG	60	0	0	1	0	03/22/22:12:52:51.517507	4173.843	0	0	anticipation	3	0.5	0	0	iti_startle
41	26	female	8	Probraum	5.5	20	2	gunmanbw	ex	black.PNG	60	0	0	1	0	03/22/22:12:52:51.630205	4173.953	0	0	anticipation	3	0.5	0	0	iti_startle
41	26	female	8	Probraum	5.5	20	2	gunmanbw	ex	black.PNG	60	0	0	1	0	03/22/22:12:52:51.745895	4174.062	0	0	anticipation	3	0.5	0	0	iti_startle
41	26	female	8	Probraum	5.5	20	2	gunmanbw	ex	black.PNG	60	0	0	1	0	03/22/22:12:52:51.860590	4174.187	0	0	anticipation	3	0.5	0	0	iti_startle
41	26	female	8	Probraum	5.5	20	2	gunmanbw	ex	black.PNG	60	0	0	1	0	03/22/22:12:52:51.973290	4174.296	0	0	anticipation	3	0.5	0	0	iti_startle
41	26	female	8	Probraum	5.5	20	2	gunmanbw	ex	black.PNG	60	0	0	1	0	03/22/22:12:52:52.086984	4174.406	0	0	anticipation	3	0.5	0	0	iti_startle
41	26	female	8	Probraum	5.5	20	2	gunmanbw	ex	black.PNG	60	0	0	1	0	03/22/22:12:52:52.198684	4174.515	0	0	anticipation	3	0.5	0	0	iti_startle
41	26	female	8	Probraum	5.5	20	2	gunmanbw	ex	black.PNG	60	0	0	1	0	03/22/22:12:52:52.311384	4174.64	0	0	anticipation	3	0.5	0	0	iti_startle
41	26	female	8	Probraum	5.5	20	2	gunmanbw	ex	black.PNG	60	0	0	1	0	03/22/22:12:52:52.424082	4174.75	0	0	anticipation	3	0.5	0	0	iti_startle
41	26	female	8	Probraum	5.5	20	2	gunmanbw	ex	black.PNG	60	0	0	1	0	03/22/22:12:52:52.537778	4174.859	0	0	anticipation	3	0.5	0	0	iti_startle
41	26	female	8	Probraum	5.5	20	2	gunmanbw	ex	black.PNG	60	0	0	1	0	03/22/22:12:52:52.650478	4174.968	0	0	anticipation	3	0.5	0	0	iti_startle
41	26	female	8	Probraum	5.5	20	2	gunmanbw	ex	black.PNG	60	0	0	1	0	03/22/22:12:52:52.763175	4175.093	0	0	anticipation	3	0.5	0	0	iti_startle
41	26	female	8	Probraum	5.5	20	2	gunmanbw	ex	black.PNG	60	0	0	1	0	03/22/22:12:52:52.875875	4175.203	0	0	anticipation	3	0.5	0	0	iti_startle
41	26	female	8	Probraum	5.5	20	2	gunmanbw	ex	black.PNG	60	0	0	1	0	03/22/22:12:52:52.988572	4175.312	0	0	anticipation	3	0.5	0	0	iti_startle
41	26	female	8	Probraum	5.5	20	2	gunmanbw	ex	black.PNG	60	0	0	1	0	03/22/22:12:52:53.101272	4175.421	0	0	anticipation	3	0.5	0	0	iti_startle
41	26	female	8	Probraum	5.5	20	2	gunmanbw	ex	black.PNG	60	0	0	1	0	03/22/22:12:52:53.213971	4175.531	0	0	anticipation	3	0.5	0	0	iti_startle
41	26	female	8	Probraum	5.5	20	2	gunmanbw	ex	black.PNG	60	0	0	1	0	03/22/22:12:52:53.326670	4175.656	0	0	anticipation	3	0.5	0	0	iti_startle
41	26	female	8	Probraum	5.5	20	2	gunmanbw	ex	black.PNG	60	0	0	1	0	03/22/22:12:52:53.439368	4175.765	0	0	anticipation	3	0.5	0	0	iti_startle
41	26	female	8	Probraum	5.5	20	2	gunmanbw	ex	black.PNG	60	0	0	1	0	03/22/22:12:52:53.553063	4175.875	0	0	anticipation	3	0.5	0	0	iti_startle
41	26	female	8	Probraum	5.5	20	2	gunmanbw	ex	black.PNG	60	0	0	1	0	03/22/22:12:52:53.665762	4175.984	0	0	anticipation	3	0.5	0	0	iti_startle
41	26	female	8	Probraum	5.5	20	2	gunmanbw	ex	black.PNG	60	0	0	1	0	03/22/22:12:52:53.779460	4176.109	0	0	anticipation	3	0.5	0	0	iti_startle
41	26	female	8	Probraum	5.5	20	2	gunmanbw	ex	black.PNG	60	0	0	1	0	03/22/22:12:52:53.892157	4176.218	0	0	anticipation	3	0.5	0	0	iti_startle
41	26	female	8	Probraum	5.5	20	2	gunmanbw	ex	black.PNG	60	0	0	1	0	03/22/22:12:52:54.005854	4176.328	0	0	anticipation	3	0.5	0	0	iti_startle
41	26	female	8	Probraum	5.5	20	2	gunmanbw	ex	black.PNG	60	0	0	1	0	03/22/22:12:52:54.119550	4176.437	0	0	anticipation	3	0.5	0	0	iti_startle
41	26	female	8	Probraum	5.5	20	2	gunmanbw	ex	black.PNG	60	0	0	1	0	03/22/22:12:52:54.233244	4176.562	0	0	anticipation	3	0.5	0	0	iti_startle
41	26	female	8	Probraum	5.5	20	2	gunmanbw	ex	black.PNG	60	0	0	1	0	03/22/22:12:52:54.345943	4176.671	0	0	anticipation	3	0.5	0	0	iti_startle
41	26	female	8	Probraum	5.5	20	2	gunmanbw	ex	black.PNG	60	0	0	1	0	03/22/22:12:52:54.460637	4176.781	0	0	anticipation	3	0.5	0	0	iti_startle
41	26	female	8	Probraum	5.5	20	2	gunmanbw	ex	black.PNG	60	0	0	1	0	03/22/22:12:52:54.574332	4176.89	0	0	anticipation	3	0.5	0	0	iti_startle
41	26	female	8	Probraum	5.5	20	2	gunmanbw	ex	black.PNG	60	0	0	1	0	03/22/22:12:52:54.689027	4177.015	0	0	anticipation	3	0.5	0	0	iti_startle
41	26	female	8	Probraum	5.5	20	2	gunmanbw	ex	black.PNG	60	0	0	1	0	03/22/22:12:52:54.692018	4177.015	0	0	guy	3	0.5	0	0	iti_startle
41	26	female	8	Probraum	5.5	20	2	gunmanbw	ex	black.PNG	60	0	0	1	0	03/22/22:12:52:54.706980	4177.031	0	0	guy	3	0.5	0	0	iti_startle
41	26	female	8	Probraum	5.5	20	2	gunmanbw	ex	black.PNG	60	0	0	1	0	03/22/22:12:52:54.722936	4177.046	0	0	guy	3	0.5	0	0	iti_startle
41	26	female	8	Probraum	5.5	20	2	gunmanbw	ex	black.PNG	60	0	0	1	0	03/22/22:12:52:54.739894	4177.062	0	0	guy	3	0.5	0	0	iti_startle
41	26	female	8	Probraum	5.5	20	2	gunmanbw	ex	black.PNG	60	0	0	1	0	03/22/22:12:52:54.756848	4177.078	0	0	guy	3	0.5	0	0	iti_startle
41	26	female	8	Probraum	5.5	20	2	gunmanbw	ex	black.PNG	60	0	0	1	0	03/22/22:12:52:54.773801	4177.093	0	0	guy	3	0.5	0	0	iti_startle
41	26	female	8	Probraum	5.5	20	2	gunmanbw	ex	black.PNG	60	0	0	1	0	03/22/22:12:52:54.790754	4177.109	0	0	guy	3	0.5	0	0	iti_startle
41	26	female	8	Probraum	5.5	20	2	gunmanbw	ex	black.PNG	60	0	0	1	0	03/22/22:12:52:54.807708	4177.125	0	0	guy	3	0.5	0	0	iti_startle
41	26	female	8	Probraum	5.5	20	2	gunmanbw	ex	black.PNG	60	0	0	1	0	03/22/22:12:52:54.823666	4177.14	0	0	guy	3	0.5	0	0	iti_startle
41	26	female	8	Probraum	5.5	20	2	gunmanbw	ex	black.PNG	60	0	0	1	0	03/22/22:12:52:54.840620	4177.156	0	0	guy	3	0.5	0	0	iti_startle
41	26	female	8	Probraum	5.5	20	2	gunmanbw	ex	black.PNG	60	0	0	1	0	03/22/22:12:52:54.857575	4177.187	0	0	guy	3	0.5	0	0	iti_startle
41	26	female	8	Probraum	5.5	20	2	gunmanbw	ex	black.PNG	60	0	0	1	0	03/22/22:12:52:54.873533	4177.203	0	0	guy	3	0.5	0	0	iti_startle
41	26	female	8	Probraum	5.5	20	2	gunmanbw	ex	black.PNG	60	0	0	1	0	03/22/22:12:52:54.890487	4177.218	0	0	guy	3	0.5	0	0	iti_startle
41	26	female	8	Probraum	5.5	20	2	gunmanbw	ex	black.PNG	60	0	0	1	0	03/22/22:12:52:54.907443	4177.234	0	0	guy	3	0.5	0	0	iti_startle
41	26	female	8	Probraum	5.5	20	2	gunmanbw	ex	black.PNG	60	0	0	1	0	03/22/22:12:52:54.924397	4177.25	0	0	guy	3	0.5	0	0	iti_startle
41	26	female	8	Probraum	5.5	20	2	gunmanbw	ex	black.PNG	60	0	0	1	0	03/22/22:12:52:54.940354	4177.265	0	0	guy	3	0.5	0	0	iti_startle
41	26	female	8	Probraum	5.5	20	2	gunmanbw	ex	black.PNG	60	0	0	1	0	03/22/22:12:52:54.957309	4177.281	0	0	guy	3	0.5	0	0	iti_startle
41	26	female	8	Probraum	5.5	20	2	gunmanbw	ex	black.PNG	60	0	0	1	0	03/22/22:12:52:54.980248	4177.296	0	0	guy	3	0.5	0	0	iti_startle
41	26	female	8	Probraum	5.5	20	2	gunmanbw	ex	black.PNG	60	0	0	1	0	03/22/22:12:52:54.990222	4177.312	0	0	guy	3	0.5	0	0	iti_startle
41	26	female	8	Probraum	5.5	20	2	gunmanbw	ex	black.PNG	60	0	0	1	0	03/22/22:12:52:55.008174	4177.328	0	0	guy	3	0.5	0	0	iti_startle
41	26	female	8	Probraum	5.5	20	2	gunmanbw	ex	black.PNG	60	0	0	1	0	03/22/22:12:52:55.024130	4177.343	0	0	guy	3	0.5	0	0	iti_startle
41	26	female	8	Probraum	5.5	20	2	gunmanbw	ex	black.PNG	60	0	0	1	0	03/22/22:12:52:55.041084	4177.359	0	0	guy	3	0.5	0	0	iti_startle
41	26	female	8	Probraum	5.5	20	2	gunmanbw	ex	black.PNG	60	0	0	1	0	03/22/22:12:52:55.057043	4177.375	0	0	guy	3	0.5	0	0	iti_startle
41	26	female	8	Probraum	5.5	20	2	gunmanbw	ex	black.PNG	60	0	0	1	0	03/22/22:12:52:55.073996	4177.39	0	0	guy	3	0.5	0	0	iti_startle
41	26	female	8	Probraum	5.5	20	2	gunmanbw	ex	black.PNG	60	0	0	1	0	03/22/22:12:52:55.089954	4177.406	0	0	guy	3	0.5	0	0	iti_startle
41	26	female	8	Probraum	5.5	20	2	gunmanbw	ex	black.PNG	60	0	0	1	0	03/22/22:12:52:55.106908	4177.421	0	0	guy	3	0.5	0	0	iti_startle
41	26	female	8	Probraum	5.5	20	2	gunmanbw	ex	black.PNG	60	0	0	1	0	03/22/22:12:52:55.123864	4177.453	0	0	guy	3	0.5	0	0	iti_startle
41	26	female	8	Probraum	5.5	20	2	gunmanbw	ex	black.PNG	60	0	0	1	0	03/22/22:12:52:55.140824	4177.468	0	0	guy	3	0.5	0	0	iti_startle
41	26	female	8	Probraum	5.5	20	2	gunmanbw	ex	black.PNG	60	0	0	1	0	03/22/22:12:52:55.156782	4177.484	0	0	guy	3	0.5	0	0	iti_startle
41	26	female	8	Probraum	5.5	20	2	gunmanbw	ex	black.PNG	60	0	0	1	0	03/22/22:12:52:55.173737	4177.5	0	0	guy	3	0.5	0	0	iti_startle
41	26	female	8	Probraum	5.5	20	2	gunmanbw	ex	black.PNG	60	0	0	1	0	03/22/22:12:52:55.190695	4177.515	0	0	guy	3	0.5	0	0	iti_startle
41	26	female	8	Probraum	5.5	20	2	gunmanbw	ex	black.PNG	60	0	0	1	0	03/22/22:12:52:55.207649	4177.531	0	0	guy	3	0.5	0	0	iti_startle
41	26	female	8	Probraum	5.5	20	2	gunmanbw	ex	black.PNG	60	0	0	1	0	03/22/22:12:52:55.223605	4177.546	0	0	guy	3	0.5	0	0	iti_startle
41	26	female	8	Probraum	5.5	20	2	gunmanbw	ex	black.PNG	60	0	0	1	0	03/22/22:12:52:55.240556	4177.562	0	0	guy	3	0.5	0	0	iti_startle
41	26	female	8	Probraum	5.5	20	2	gunmanbw	ex	black.PNG	60	0	0	1	0	03/22/22:12:52:55.257512	4177.578	0	0	guy	3	0.5	0	0	iti_startle
41	26	female	8	Probraum	5.5	20	2	gunmanbw	ex	black.PNG	60	0	0	1	0	03/22/22:12:52:55.274465	4177.593	0	0	guy	3	0.5	0	0	iti_startle
41	26	female	8	Probraum	5.5	20	2	gunmanbw	ex	black.PNG	60	0	0	1	0	03/22/22:12:52:55.290424	4177.609	0	0	guy	3	0.5	0	0	iti_startle
41	26	female	8	Probraum	5.5	20	2	gunmanbw	ex	black.PNG	60	0	0	1	0	03/22/22:12:52:55.307379	4177.625	0	0	guy	3	0.5	0	0	iti_startle
41	26	female	8	Probraum	5.5	20	2	gunmanbw	ex	black.PNG	60	0	0	1	0	03/22/22:12:52:55.324333	4177.64	0	0	guy	3	0.5	0	0	iti_startle
41	26	female	8	Probraum	5.5	20	2	gunmanbw	ex	black.PNG	60	0	0	1	0	03/22/22:12:52:55.341288	4177.656	0	0	guy	3	0.5	0	0	iti_startle
41	26	female	8	Probraum	5.5	20	2	gunmanbw	ex	black.PNG	60	0	0	1	0	03/22/22:12:52:55.357244	4177.687	0	0	guy	3	0.5	0	0	iti_startle
41	26	female	8	Probraum	5.5	20	2	gunmanbw	ex	black.PNG	60	0	0	1	0	03/22/22:12:52:55.374198	4177.703	0	0	guy	3	0.5	0	0	iti_startle
41	26	female	8	Probraum	5.5	20	2	gunmanbw	ex	black.PNG	60	0	0	1	0	03/22/22:12:52:55.391154	4177.718	0	0	guy	3	0.5	0	0	iti_startle
41	26	female	8	Probraum	5.5	20	2	gunmanbw	ex	black.PNG	60	0	0	1	0	03/22/22:12:52:55.407110	4177.734	0	0	guy	3	0.5	0	0	iti_startle
41	26	female	8	Probraum	5.5	20	2	gunmanbw	ex	black.PNG	60	0	0	1	0	03/22/22:12:52:55.424065	4177.75	0	0	guy	3	0.5	0	0	iti_startle
41	26	female	8	Probraum	5.5	20	2	gunmanbw	ex	black.PNG	60	0	0	1	0	03/22/22:12:52:55.441020	4177.765	0	0	guy	3	0.5	0	0	iti_startle
41	26	female	8	Probraum	5.5	20	2	gunmanbw	ex	black.PNG	60	0	0	1	0	03/22/22:12:52:55.456977	4177.781	0	0	guy	3	0.5	0	0	iti_startle
41	26	female	8	Probraum	5.5	20	2	gunmanbw	ex	black.PNG	60	0	0	1	0	03/22/22:12:52:55.473986	4177.796	0	0	guy	3	0.5	0	0	iti_startle
41	26	female	8	Probraum	5.5	20	2	gunmanbw	ex	black.PNG	60	0	0	1	0	03/22/22:12:52:55.490943	4177.812	0	0	guy	3	0.5	0	0	iti_startle
41	26	female	8	Probraum	5.5	20	2	gunmanbw	ex	black.PNG	60	0	0	1	0	03/22/22:12:52:55.507263	4177.828	0	0	guy	3	0.5	0	0	iti_startle
41	26	female	8	Probraum	5.5	20	2	gunmanbw	ex	black.PNG	60	0	0	1	0	03/22/22:12:52:55.523853	4177.843	0	0	guy	3	0.5	0	0	iti_startle
41	26	female	8	Probraum	5.5	20	2	gunmanbw	ex	black.PNG	60	0	0	1	0	03/22/22:12:52:55.540807	4177.859	0	0	guy	3	0.5	0	0	iti_startle
41	26	female	8	Probraum	5.5	20	2	gunmanbw	ex	black.PNG	60	0	0	1	0	03/22/22:12:52:55.557761	4177.875	0	0	guy	3	0.5	0	0	iti_startle
41	26	female	8	Probraum	5.5	20	2	gunmanbw	ex	black.PNG	60	0	0	1	0	03/22/22:12:52:55.573722	4177.89	0	0	guy	3	0.5	0	0	iti_startle
41	26	female	8	Probraum	5.5	20	2	gunmanbw	ex	black.PNG	60	0	0	1	0	03/22/22:12:52:55.590675	4177.906	0	0	guy	3	0.5	0	0	iti_startle
41	26	female	8	Probraum	5.5	20	2	gunmanbw	ex	black.PNG	60	0	0	1	0	03/22/22:12:52:55.607631	4177.937	0	0	opp	3	0.5	0	0	iti_startle
41	26	female	8	Probraum	5.5	20	2	gunmanbw	ex	black.PNG	60	0	0	1	0	03/22/22:12:52:55.623594	4177.953	0	0	opp	3	0.5	0	0	iti_startle
41	26	female	8	Probraum	5.5	20	2	gunmanbw	ex	black.PNG	60	0	0	1	0	03/22/22:12:52:55.640548	4177.968	0	0	opp	3	0.5	0	0	iti_startle
41	26	female	8	Probraum	5.5	20	2	gunmanbw	ex	black.PNG	60	0	0	1	0	03/22/22:12:52:55.657502	4177.984	0	0	opp	3	0.5	0	0	iti_startle
41	26	female	8	Probraum	5.5	20	2	gunmanbw	ex	black.PNG	60	0	0	1	0	03/22/22:12:52:55.674458	4178.0	0	0	opp	3	0.5	0	0	iti_startle
41	26	female	8	Probraum	5.5	20	2	gunmanbw	ex	black.PNG	60	0	0	1	0	03/22/22:12:52:55.690416	4178.015	0	0	opp	3	0.5	0	0	iti_startle
41	26	female	8	Probraum	5.5	20	2	gunmanbw	ex	black.PNG	60	0	0	1	0	03/22/22:12:52:55.707370	4178.031	0	0	opp	3	0.5	0	0	iti_startle
41	26	female	8	Probraum	5.5	20	2	gunmanbw	ex	black.PNG	60	0	0	1	0	03/22/22:12:52:55.724327	4178.046	0	0	opp	3	0.5	0	0	iti_startle
41	26	female	8	Probraum	5.5	20	2	gunmanbw	ex	black.PNG	60	0	0	1	0	03/22/22:12:52:55.741278	4178.062	0	0	opp	3	0.5	0	0	iti_startle
41	26	female	8	Probraum	5.5	20	2	gunmanbw	ex	black.PNG	60	0	0	1	0	03/22/22:12:52:55.757235	4178.078	0	0	opp	3	0.5	0	0	iti_startle
41	26	female	8	Probraum	5.5	20	2	gunmanbw	ex	black.PNG	60	0	0	1	0	03/22/22:12:52:55.774191	4178.093	0	0	opp	3	0.5	0	0	iti_startle
41	26	female	8	Probraum	5.5	20	2	gunmanbw	ex	black.PNG	60	0	0	1	0	03/22/22:12:52:55.791145	4178.109	0	0	opp	3	0.5	0	0	iti_startle
41	26	female	8	Probraum	5.5	20	2	gunmanbw	ex	black.PNG	60	0	0	1	0	03/22/22:12:52:55.807103	4178.125	0	0	opp	3	0.5	0	0	iti_startle
41	26	female	8	Probraum	5.5	20	2	gunmanbw	ex	black.PNG	60	0	0	1	0	03/22/22:12:52:55.824059	4178.14	0	0	opp	3	0.5	0	0	iti_startle
41	26	female	8	Probraum	5.5	20	2	gunmanbw	ex	black.PNG	60	0	0	1	0	03/22/22:12:52:55.841056	4178.156	0	0	opp	3	0.5	0	0	iti_startle
41	26	female	8	Probraum	5.5	20	2	gunmanbw	ex	black.PNG	60	0	0	1	0	03/22/22:12:52:55.856970	4178.187	0	0	opp	3	0.5	0	0	iti_startle
41	26	female	8	Probraum	5.5	20	2	gunmanbw	ex	black.PNG	60	0	0	1	0	03/22/22:12:52:55.873925	4178.203	0	0	opp	3	0.5	0	0	iti_startle
41	26	female	8	Probraum	5.5	20	2	gunmanbw	ex	black.PNG	60	0	0	1	0	03/22/22:12:52:55.890881	4178.218	0	0	opp	3	0.5	0	0	iti_startle
41	26	female	8	Probraum	5.5	20	2	gunmanbw	ex	black.PNG	60	0	0	1	0	03/22/22:12:52:55.907837	4178.234	0	0	opp	3	0.5	0	0	iti_startle
41	26	female	8	Probraum	5.5	20	2	gunmanbw	ex	black.PNG	60	0	0	1	0	03/22/22:12:52:55.924790	4178.25	0	0	opp	3	0.5	0	0	iti_startle
41	26	female	8	Probraum	5.5	20	2	gunmanbw	ex	black.PNG	60	0	0	1	0	03/22/22:12:52:55.941182	4178.265	0	0	opp	3	0.5	0	0	iti_startle
41	26	female	8	Probraum	5.5	20	2	gunmanbw	ex	black.PNG	60	0	0	1	0	03/22/22:12:52:55.957069	4178.281	0	0	opp	3	0.5	0	0	iti_startle
41	26	female	8	Probraum	5.5	20	2	gunmanbw	ex	black.PNG	60	0	0	1	0	03/22/22:12:52:55.974394	4178.296	0	0	opp	3	0.5	0	0	iti_startle
41	26	female	8	Probraum	5.5	20	2	gunmanbw	ex	black.PNG	60	0	0	1	0	03/22/22:12:52:55.990981	4178.312	0	0	opp	3	0.5	0	0	iti_startle
41	26	female	8	Probraum	5.5	20	2	gunmanbw	ex	black.PNG	60	0	0	1	0	03/22/22:12:52:56.007935	4178.328	0	0	opp	3	0.5	0	0	iti_startle
41	26	female	8	Probraum	5.5	20	2	gunmanbw	ex	black.PNG	60	0	0	1	0	03/22/22:12:52:56.024340	4178.343	0	0	opp	3	0.5	0	0	iti_startle
41	26	female	8	Probraum	5.5	20	2	gunmanbw	ex	black.PNG	60	0	0	1	0	03/22/22:12:52:56.040859	4178.359	0	0	opp	3	0.5	0	0	iti_startle
41	26	female	8	Probraum	5.5	20	2	gunmanbw	ex	black.PNG	60	1	0	1	0	03/22/22:12:52:56.042853	4178.359	0	0	opp	3	0.5	0	0	iti_startle
41	26	female	8	Probraum	5.5	20	2	gunmanbw	ex	black.PNG	60	1	0	1	0	03/22/22:12:52:56.043850	4178.359	0.4518	0	click safe opponent reaction, RT	3	0.5	0	0	iti_startle
41	26	female	8	Probraum	5.5	20	2	gunmanbw	ex	black.PNG	60	1	0	1	0	03/22/22:12:52:57.060135	4179.39	0.4518	I	click safe opponent reaction, RT	3	0.5	0	0	iti_startle
41	26	female	8	Probraum	5.5	20	2	gunmanbw	ex	black.PNG	60	1	0	1	0	03/22/22:12:52:57.060135	4179.39	0.4518	I	click safe opponent reaction, RT	3	0.5	0	0	iti_startle
41	26	female	8	Probraum	5.5	20	2	phonemancaro	ex	blue.PNG	60	0	0	1	0	03/22/22:12:53:04.178104	4186.5	0	0	onset	3	0.5	0	0	silence
41	26	female	8	Probraum	5.5	20	2	phonemancaro	ex	blue.PNG	60	0	0	1	0	03/22/22:12:53:04.295788	4186.625	0	0	anticipation	3	0.5	0	0	silence
41	26	female	8	Probraum	5.5	20	2	phonemancaro	ex	blue.PNG	60	0	0	1	0	03/22/22:12:53:04.411479	4186.734	0	0	anticipation	3	0.5	0	0	silence
41	26	female	8	Probraum	5.5	20	2	phonemancaro	ex	blue.PNG	60	0	0	1	0	03/22/22:12:53:04.526173	4186.843	0	0	anticipation	3	0.5	0	0	silence
41	26	female	8	Probraum	5.5	20	2	phonemancaro	ex	blue.PNG	60	0	0	1	0	03/22/22:12:53:04.638871	4186.968	0	0	anticipation	3	0.5	0	0	silence
41	26	female	8	Probraum	5.5	20	2	phonemancaro	ex	blue.PNG	60	0	0	1	0	03/22/22:12:53:04.753564	4187.078	0	0	anticipation	3	0.5	0	0	silence
41	26	female	8	Probraum	5.5	20	2	phonemancaro	ex	blue.PNG	60	0	0	1	0	03/22/22:12:53:04.868256	4187.187	0	0	anticipation	3	0.5	0	0	silence
41	26	female	8	Probraum	5.5	20	2	phonemancaro	ex	blue.PNG	60	0	0	1	0	03/22/22:12:53:04.982948	4187.312	0	0	anticipation	3	0.5	0	0	silence
41	26	female	8	Probraum	5.5	20	2	phonemancaro	ex	blue.PNG	60	0	0	1	0	03/22/22:12:53:05.095650	4187.421	0	0	anticipation	3	0.5	0	0	silence
41	26	female	8	Probraum	5.5	20	2	phonemancaro	ex	blue.PNG	60	0	0	1	0	03/22/22:12:53:05.225300	4187.546	0	0	anticipation	3	0.5	0	0	silence
41	26	female	8	Probraum	5.5	20	2	phonemancaro	ex	blue.PNG	60	0	0	1	0	03/22/22:12:53:05.339996	4187.656	0	0	anticipation	3	0.5	0	0	silence
41	26	female	8	Probraum	5.5	20	2	phonemancaro	ex	blue.PNG	60	0	0	1	0	03/22/22:12:53:05.454688	4187.781	0	0	anticipation	3	0.5	0	0	silence
41	26	female	8	Probraum	5.5	20	2	phonemancaro	ex	blue.PNG	60	0	0	1	0	03/22/22:12:53:05.568385	4187.89	0	0	anticipation	3	0.5	0	0	silence
41	26	female	8	Probraum	5.5	20	2	phonemancaro	ex	blue.PNG	60	0	0	1	0	03/22/22:12:53:05.683076	4188.0	0	0	anticipation	3	0.5	0	0	silence
41	26	female	8	Probraum	5.5	20	2	phonemancaro	ex	blue.PNG	60	0	0	1	0	03/22/22:12:53:05.795775	4188.125	0	0	anticipation	3	0.5	0	0	silence
41	26	female	8	Probraum	5.5	20	2	phonemancaro	ex	blue.PNG	60	0	0	1	0	03/22/22:12:53:05.911469	4188.234	0	0	anticipation	3	0.5	0	0	silence
41	26	female	8	Probraum	5.5	20	2	phonemancaro	ex	blue.PNG	60	0	0	1	0	03/22/22:12:53:06.024167	4188.343	0	0	anticipation	3	0.5	0	0	silence
41	26	female	8	Probraum	5.5	20	2	phonemancaro	ex	blue.PNG	60	0	0	1	0	03/22/22:12:53:06.138858	4188.468	0	0	anticipation	3	0.5	0	0	silence
41	26	female	8	Probraum	5.5	20	2	phonemancaro	ex	blue.PNG	60	0	0	1	0	03/22/22:12:53:06.253556	4188.578	0	0	anticipation	3	0.5	0	0	silence
41	26	female	8	Probraum	5.5	20	2	phonemancaro	ex	blue.PNG	60	0	0	1	0	03/22/22:12:53:06.393181	4188.718	0	0	anticipation	3	0.5	0	0	silence
41	26	female	8	Probraum	5.5	20	2	phonemancaro	ex	blue.PNG	60	0	0	1	0	03/22/22:12:53:06.506873	4188.828	0	0	anticipation	3	0.5	0	0	silence
41	26	female	8	Probraum	5.5	20	2	phonemancaro	ex	blue.PNG	60	0	0	1	0	03/22/22:12:53:06.622568	4188.953	0	0	anticipation	3	0.5	0	0	silence
41	26	female	8	Probraum	5.5	20	2	phonemancaro	ex	blue.PNG	60	0	0	1	0	03/22/22:12:53:06.736263	4189.062	0	0	anticipation	3	0.5	0	0	silence
41	26	female	8	Probraum	5.5	20	2	phonemancaro	ex	blue.PNG	60	0	0	1	0	03/22/22:12:53:06.849959	4189.171	0	0	anticipation	3	0.5	0	0	silence
41	26	female	8	Probraum	5.5	20	2	phonemancaro	ex	blue.PNG	60	0	0	1	0	03/22/22:12:53:06.963656	4189.281	0	0	anticipation	3	0.5	0	0	silence
41	26	female	8	Probraum	5.5	20	2	phonemancaro	ex	blue.PNG	60	0	0	1	0	03/22/22:12:53:07.078345	4189.406	0	0	anticipation	3	0.5	0	0	silence
41	26	female	8	Probraum	5.5	20	2	phonemancaro	ex	blue.PNG	60	0	0	1	0	03/22/22:12:53:07.192042	4189.515	0	0	anticipation	3	0.5	0	0	silence
41	26	female	8	Probraum	5.5	20	2	phonemancaro	ex	blue.PNG	60	0	0	1	0	03/22/22:12:53:07.304740	4189.625	0	0	anticipation	3	0.5	0	0	silence
41	26	female	8	Probraum	5.5	20	2	phonemancaro	ex	blue.PNG	60	0	0	1	0	03/22/22:12:53:07.419433	4189.75	0	0	anticipation	3	0.5	0	0	silence
