ID	age	sex	investigator	location	shockamplitude	roomtemperature	counterbalance	opponent	trialnr	blink	blinktime	click_check	shock_check	shock_count	shock_ratio	current_time	coreTrialStart	RT	accuracy	marker	iti	ind_time	cond_threat_count	shock_threat_count	startle
44	24	female	15	Probraum	1.5	22	1	phonemancaro	ex	blue.PNG	60	0	0	0	0	03/25/22:15:18:34.744131	4884.406	0	0	onset	3	0.5	0	0	silence
44	24	female	15	Probraum	1.5	22	1	phonemancaro	ex	blue.PNG	60	0	0	0	0	03/25/22:15:18:34.879766	4884.531	0	0	anticipation	3	0.5	0	0	silence
44	24	female	15	Probraum	1.5	22	1	phonemancaro	ex	blue.PNG	60	0	0	0	0	03/25/22:15:18:34.993461	4884.656	0	0	anticipation	3	0.5	0	0	silence
44	24	female	15	Probraum	1.5	22	1	phonemancaro	ex	blue.PNG	60	0	0	0	0	03/25/22:15:18:35.108155	4884.765	0	0	anticipation	3	0.5	0	0	silence
44	24	female	15	Probraum	1.5	22	1	phonemancaro	ex	blue.PNG	60	0	0	0	0	03/25/22:15:18:35.221850	4884.875	0	0	anticipation	3	0.5	0	0	silence
44	24	female	15	Probraum	1.5	22	1	phonemancaro	ex	blue.PNG	60	0	0	0	0	03/25/22:15:18:35.336546	4885.0	0	0	anticipation	3	0.5	0	0	silence
44	24	female	15	Probraum	1.5	22	1	phonemancaro	ex	blue.PNG	60	0	0	0	0	03/25/22:15:18:35.452234	4885.109	0	0	anticipation	3	0.5	0	0	silence
44	24	female	15	Probraum	1.5	22	1	phonemancaro	ex	blue.PNG	60	0	0	0	0	03/25/22:15:18:35.562938	4885.218	0	0	anticipation	3	0.5	0	0	silence
44	24	female	15	Probraum	1.5	22	1	phonemancaro	ex	blue.PNG	60	0	0	0	0	03/25/22:15:18:35.677631	4885.328	0	0	anticipation	3	0.5	0	0	silence
44	24	female	15	Probraum	1.5	22	1	phonemancaro	ex	blue.PNG	60	0	0	0	0	03/25/22:15:18:35.791328	4885.453	0	0	anticipation	3	0.5	0	0	silence
44	24	female	15	Probraum	1.5	22	1	phonemancaro	ex	blue.PNG	60	0	0	0	0	03/25/22:15:18:35.905024	4885.562	0	0	anticipation	3	0.5	0	0	silence
44	24	female	15	Probraum	1.5	22	1	phonemancaro	ex	blue.PNG	60	0	0	0	0	03/25/22:15:18:36.018722	4885.671	0	0	anticipation	3	0.5	0	0	silence
44	24	female	15	Probraum	1.5	22	1	phonemancaro	ex	blue.PNG	60	0	0	0	0	03/25/22:15:18:36.133413	4885.796	0	0	anticipation	3	0.5	0	0	silence
44	24	female	15	Probraum	1.5	22	1	phonemancaro	ex	blue.PNG	60	0	0	0	0	03/25/22:15:18:36.248109	4885.906	0	0	anticipation	3	0.5	0	0	silence
44	24	female	15	Probraum	1.5	22	1	phonemancaro	ex	blue.PNG	60	0	0	0	0	03/25/22:15:18:36.363797	4886.015	0	0	anticipation	3	0.5	0	0	silence
44	24	female	15	Probraum	1.5	22	1	phonemancaro	ex	blue.PNG	60	0	0	0	0	03/25/22:15:18:36.476495	4886.14	0	0	anticipation	3	0.5	0	0	silence
44	24	female	15	Probraum	1.5	22	1	phonemancaro	ex	blue.PNG	60	0	0	0	0	03/25/22:15:18:36.590191	4886.25	0	0	anticipation	3	0.5	0	0	silence
44	24	female	15	Probraum	1.5	22	1	phonemancaro	ex	blue.PNG	60	0	0	0	0	03/25/22:15:18:36.705884	4886.359	0	0	anticipation	3	0.5	0	0	silence
44	24	female	15	Probraum	1.5	22	1	phonemancaro	ex	blue.PNG	60	0	0	0	0	03/25/22:15:18:36.819578	4886.468	0	0	anticipation	3	0.5	0	0	silence
44	24	female	15	Probraum	1.5	22	1	phonemancaro	ex	blue.PNG	60	0	0	0	0	03/25/22:15:18:36.934274	4886.593	0	0	anticipation	3	0.5	0	0	silence
44	24	female	15	Probraum	1.5	22	1	phonemancaro	ex	blue.PNG	60	0	0	0	0	03/25/22:15:18:37.047970	4886.703	0	0	anticipation	3	0.5	0	0	silence
44	24	female	15	Probraum	1.5	22	1	phonemancaro	ex	blue.PNG	60	0	0	0	0	03/25/22:15:18:37.161663	4886.812	0	0	anticipation	3	0.5	0	0	silence
44	24	female	15	Probraum	1.5	22	1	phonemancaro	ex	blue.PNG	60	0	0	0	0	03/25/22:15:18:37.275359	4886.937	0	0	anticipation	3	0.5	0	0	silence
44	24	female	15	Probraum	1.5	22	1	phonemancaro	ex	blue.PNG	60	0	0	0	0	03/25/22:15:18:37.390052	4887.046	0	0	anticipation	3	0.5	0	0	silence
44	24	female	15	Probraum	1.5	22	1	phonemancaro	ex	blue.PNG	60	0	0	0	0	03/25/22:15:18:37.502751	4887.156	0	0	anticipation	3	0.5	0	0	silence
44	24	female	15	Probraum	1.5	22	1	phonemancaro	ex	blue.PNG	60	0	0	0	0	03/25/22:15:18:37.617447	4887.281	0	0	anticipation	3	0.5	0	0	silence
44	24	female	15	Probraum	1.5	22	1	phonemancaro	ex	blue.PNG	60	0	0	0	0	03/25/22:15:18:37.732138	4887.39	0	0	anticipation	3	0.5	0	0	silence
44	24	female	15	Probraum	1.5	22	1	phonemancaro	ex	blue.PNG	60	0	0	0	0	03/25/22:15:18:37.846831	4887.5	0	0	anticipation	3	0.5	0	0	silence
44	24	female	15	Probraum	1.5	22	1	phonemancaro	ex	blue.PNG	60	0	0	0	0	03/25/22:15:18:37.960529	4887.625	0	0	anticipation	3	0.5	0	0	silence
44	24	female	15	Probraum	1.5	22	1	phonemancaro	ex	blue.PNG	60	0	0	0	0	03/25/22:15:18:38.076219	4887.734	0	0	anticipation	3	0.5	0	0	silence
44	24	female	15	Probraum	1.5	22	1	phonemancaro	ex	blue.PNG	60	0	0	0	0	03/25/22:15:18:38.189913	4887.843	0	0	anticipation	3	0.5	0	0	silence
44	24	female	15	Probraum	1.5	22	1	phonemancaro	ex	blue.PNG	60	0	0	0	0	03/25/22:15:18:38.304606	4887.968	0	0	anticipation	3	0.5	0	0	silence
44	24	female	15	Probraum	1.5	22	1	phonemancaro	ex	blue.PNG	60	0	0	0	0	03/25/22:15:18:38.422291	4888.078	0	0	anticipation	3	0.5	0	0	silence
44	24	female	15	Probraum	1.5	22	1	phonemancaro	ex	blue.PNG	60	0	0	0	0	03/25/22:15:18:38.535990	4888.187	0	0	anticipation	3	0.5	0	0	silence
44	24	female	15	Probraum	1.5	22	1	phonemancaro	ex	blue.PNG	60	0	0	0	0	03/25/22:15:18:38.649684	4888.312	0	0	anticipation	3	0.5	0	0	silence
44	24	female	15	Probraum	1.5	22	1	phonemancaro	ex	blue.PNG	60	0	0	0	0	03/25/22:15:18:38.764379	4888.421	0	0	anticipation	3	0.5	0	0	silence
44	24	female	15	Probraum	1.5	22	1	phonemancaro	ex	blue.PNG	60	0	0	0	0	03/25/22:15:18:38.881067	4888.531	0	0	anticipation	3	0.5	0	0	silence
44	24	female	15	Probraum	1.5	22	1	phonemancaro	ex	blue.PNG	60	0	0	0	0	03/25/22:15:18:38.994760	4888.656	0	0	anticipation	3	0.5	0	0	silence
44	24	female	15	Probraum	1.5	22	1	phonemancaro	ex	blue.PNG	60	0	0	0	0	03/25/22:15:18:39.109454	4888.765	0	0	anticipation	3	0.5	0	0	silence
44	24	female	15	Probraum	1.5	22	1	phonemancaro	ex	blue.PNG	60	0	0	0	0	03/25/22:15:18:39.224148	4888.875	0	0	anticipation	3	0.5	0	0	silence
44	24	female	15	Probraum	1.5	22	1	phonemancaro	ex	blue.PNG	60	0	0	0	0	03/25/22:15:18:39.337846	4889.0	0	0	anticipation	3	0.5	0	0	silence
44	24	female	15	Probraum	1.5	22	1	phonemancaro	ex	blue.PNG	60	0	0	0	0	03/25/22:15:18:39.452539	4889.109	0	0	anticipation	3	0.5	0	0	silence
44	24	female	15	Probraum	1.5	22	1	phonemancaro	ex	blue.PNG	60	0	0	0	0	03/25/22:15:18:39.564237	4889.218	0	0	anticipation	3	0.5	0	0	silence
44	24	female	15	Probraum	1.5	22	1	phonemancaro	ex	blue.PNG	60	0	0	0	0	03/25/22:15:18:39.678933	4889.328	0	0	anticipation	3	0.5	0	0	silence
44	24	female	15	Probraum	1.5	22	1	phonemancaro	ex	blue.PNG	60	0	0	0	0	03/25/22:15:18:39.792629	4889.453	0	0	anticipation	3	0.5	0	0	silence
44	24	female	15	Probraum	1.5	22	1	phonemancaro	ex	blue.PNG	60	0	0	0	0	03/25/22:15:18:39.906323	4889.562	0	0	anticipation	3	0.5	0	0	silence
44	24	female	15	Probraum	1.5	22	1	phonemancaro	ex	blue.PNG	60	0	0	0	0	03/25/22:15:18:40.021016	4889.671	0	0	anticipation	3	0.5	0	0	silence
44	24	female	15	Probraum	1.5	22	1	phonemancaro	ex	blue.PNG	60	0	0	0	0	03/25/22:15:18:40.135709	4889.796	0	0	anticipation	3	0.5	0	0	silence
44	24	female	15	Probraum	1.5	22	1	phonemancaro	ex	blue.PNG	60	0	0	0	0	03/25/22:15:18:40.250402	4889.906	0	0	anticipation	3	0.5	0	0	silence
44	24	female	15	Probraum	1.5	22	1	phonemancaro	ex	blue.PNG	60	0	0	0	0	03/25/22:15:18:40.365096	4890.015	0	0	anticipation	3	0.5	0	0	silence
44	24	female	15	Probraum	1.5	22	1	phonemancaro	ex	blue.PNG	60	0	0	0	0	03/25/22:15:18:40.477794	4890.14	0	0	anticipation	3	0.5	0	0	silence
44	24	female	15	Probraum	1.5	22	1	phonemancaro	ex	blue.PNG	60	0	0	0	0	03/25/22:15:18:40.592488	4890.25	0	0	anticipation	3	0.5	0	0	silence
44	24	female	15	Probraum	1.5	22	1	phonemancaro	ex	blue.PNG	60	0	0	0	0	03/25/22:15:18:40.731120	4890.39	0	0	anticipation	3	0.5	0	0	silence
44	24	female	15	Probraum	1.5	22	1	phonemancaro	ex	blue.PNG	60	0	0	0	0	03/25/22:15:18:40.844813	4890.5	0	0	anticipation	3	0.5	0	0	silence
44	24	female	15	Probraum	1.5	22	1	phonemancaro	ex	blue.PNG	60	0	0	0	0	03/25/22:15:18:40.959506	4890.609	0	0	anticipation	3	0.5	0	0	silence
44	24	female	15	Probraum	1.5	22	1	phonemancaro	ex	blue.PNG	60	0	0	0	0	03/25/22:15:18:40.971474	4890.625	0	0	guy	3	0.5	0	0	silence
44	24	female	15	Probraum	1.5	22	1	phonemancaro	ex	blue.PNG	60	0	0	0	0	03/25/22:15:18:40.988431	4890.64	0	0	guy	3	0.5	0	0	silence
44	24	female	15	Probraum	1.5	22	1	phonemancaro	ex	blue.PNG	60	0	0	0	0	03/25/22:15:18:41.005385	4890.656	0	0	guy	3	0.5	0	0	silence
44	24	female	15	Probraum	1.5	22	1	phonemancaro	ex	blue.PNG	60	0	0	0	0	03/25/22:15:18:41.021343	4890.671	0	0	guy	3	0.5	0	0	silence
44	24	female	15	Probraum	1.5	22	1	phonemancaro	ex	blue.PNG	60	0	0	0	0	03/25/22:15:18:41.039303	4890.703	0	0	guy	3	0.5	0	0	silence
44	24	female	15	Probraum	1.5	22	1	phonemancaro	ex	blue.PNG	60	0	0	0	0	03/25/22:15:18:41.056257	4890.718	0	0	guy	3	0.5	0	0	silence
44	24	female	15	Probraum	1.5	22	1	phonemancaro	ex	blue.PNG	60	0	0	0	0	03/25/22:15:18:41.072215	4890.734	0	0	guy	3	0.5	0	0	silence
44	24	female	15	Probraum	1.5	22	1	phonemancaro	ex	blue.PNG	60	0	0	0	0	03/25/22:15:18:41.089167	4890.75	0	0	guy	3	0.5	0	0	silence
44	24	female	15	Probraum	1.5	22	1	phonemancaro	ex	blue.PNG	60	0	0	0	0	03/25/22:15:18:41.106124	4890.765	0	0	guy	3	0.5	0	0	silence
44	24	female	15	Probraum	1.5	22	1	phonemancaro	ex	blue.PNG	60	0	0	0	0	03/25/22:15:18:41.122079	4890.781	0	0	guy	3	0.5	0	0	silence
44	24	female	15	Probraum	1.5	22	1	phonemancaro	ex	blue.PNG	60	0	0	0	0	03/25/22:15:18:41.139036	4890.796	0	0	guy	3	0.5	0	0	silence
44	24	female	15	Probraum	1.5	22	1	phonemancaro	ex	blue.PNG	60	0	0	0	0	03/25/22:15:18:41.155988	4890.812	0	0	guy	3	0.5	0	0	silence
44	24	female	15	Probraum	1.5	22	1	phonemancaro	ex	blue.PNG	60	0	0	0	0	03/25/22:15:18:41.171948	4890.828	0	0	guy	3	0.5	0	0	silence
44	24	female	15	Probraum	1.5	22	1	phonemancaro	ex	blue.PNG	60	0	0	0	0	03/25/22:15:18:41.188901	4890.843	0	0	guy	3	0.5	0	0	silence
44	24	female	15	Probraum	1.5	22	1	phonemancaro	ex	blue.PNG	60	0	0	0	0	03/25/22:15:18:41.205857	4890.859	0	0	guy	3	0.5	0	0	silence
44	24	female	15	Probraum	1.5	22	1	phonemancaro	ex	blue.PNG	60	0	0	0	0	03/25/22:15:18:41.222814	4890.875	0	0	guy	3	0.5	0	0	silence
44	24	female	15	Probraum	1.5	22	1	phonemancaro	ex	blue.PNG	60	0	0	0	0	03/25/22:15:18:41.238770	4890.89	0	0	guy	3	0.5	0	0	silence
44	24	female	15	Probraum	1.5	22	1	phonemancaro	ex	blue.PNG	60	0	0	0	0	03/25/22:15:18:41.255722	4890.906	0	0	guy	3	0.5	0	0	silence
44	24	female	15	Probraum	1.5	22	1	phonemancaro	ex	blue.PNG	60	0	0	0	0	03/25/22:15:18:41.272676	4890.921	0	0	guy	3	0.5	0	0	silence
44	24	female	15	Probraum	1.5	22	1	phonemancaro	ex	blue.PNG	60	0	0	0	0	03/25/22:15:18:41.288634	4890.953	0	0	guy	3	0.5	0	0	silence
44	24	female	15	Probraum	1.5	22	1	phonemancaro	ex	blue.PNG	60	0	0	0	0	03/25/22:15:18:41.305588	4890.968	0	0	guy	3	0.5	0	0	silence
44	24	female	15	Probraum	1.5	22	1	phonemancaro	ex	blue.PNG	60	0	0	0	0	03/25/22:15:18:41.322550	4890.984	0	0	guy	3	0.5	0	0	silence
44	24	female	15	Probraum	1.5	22	1	phonemancaro	ex	blue.PNG	60	0	0	0	0	03/25/22:15:18:41.339507	4891.0	0	0	guy	3	0.5	0	0	silence
44	24	female	15	Probraum	1.5	22	1	phonemancaro	ex	blue.PNG	60	0	0	0	0	03/25/22:15:18:41.355462	4891.015	0	0	guy	3	0.5	0	0	silence
44	24	female	15	Probraum	1.5	22	1	phonemancaro	ex	blue.PNG	60	0	0	0	0	03/25/22:15:18:41.372419	4891.031	0	0	guy	3	0.5	0	0	silence
44	24	female	15	Probraum	1.5	22	1	phonemancaro	ex	blue.PNG	60	0	0	0	0	03/25/22:15:18:41.389374	4891.046	0	0	guy	3	0.5	0	0	silence
44	24	female	15	Probraum	1.5	22	1	phonemancaro	ex	blue.PNG	60	0	0	0	0	03/25/22:15:18:41.405329	4891.062	0	0	guy	3	0.5	0	0	silence
44	24	female	15	Probraum	1.5	22	1	phonemancaro	ex	blue.PNG	60	0	0	0	0	03/25/22:15:18:41.422284	4891.078	0	0	guy	3	0.5	0	0	silence
44	24	female	15	Probraum	1.5	22	1	phonemancaro	ex	blue.PNG	60	0	0	0	0	03/25/22:15:18:41.439238	4891.093	0	0	guy	3	0.5	0	0	silence
44	24	female	15	Probraum	1.5	22	1	phonemancaro	ex	blue.PNG	60	0	0	0	0	03/25/22:15:18:41.455196	4891.109	0	0	guy	3	0.5	0	0	silence
44	24	female	15	Probraum	1.5	22	1	phonemancaro	ex	blue.PNG	60	0	0	0	0	03/25/22:15:18:41.472150	4891.125	0	0	guy	3	0.5	0	0	silence
44	24	female	15	Probraum	1.5	22	1	phonemancaro	ex	blue.PNG	60	0	0	0	0	03/25/22:15:18:41.489107	4891.14	0	0	guy	3	0.5	0	0	silence
44	24	female	15	Probraum	1.5	22	1	phonemancaro	ex	blue.PNG	60	0	0	0	0	03/25/22:15:18:41.505065	4891.156	0	0	guy	3	0.5	0	0	silence
44	24	female	15	Probraum	1.5	22	1	phonemancaro	ex	blue.PNG	60	0	0	0	0	03/25/22:15:18:41.522019	4891.171	0	0	guy	3	0.5	0	0	silence
44	24	female	15	Probraum	1.5	22	1	phonemancaro	ex	blue.PNG	60	0	0	0	0	03/25/22:15:18:41.538973	4891.203	0	0	guy	3	0.5	0	0	silence
44	24	female	15	Probraum	1.5	22	1	phonemancaro	ex	blue.PNG	60	0	0	0	0	03/25/22:15:18:41.555929	4891.218	0	0	guy	3	0.5	0	0	silence
44	24	female	15	Probraum	1.5	22	1	phonemancaro	ex	blue.PNG	60	0	0	0	0	03/25/22:15:18:41.571883	4891.234	0	0	guy	3	0.5	0	0	silence
44	24	female	15	Probraum	1.5	22	1	phonemancaro	ex	blue.PNG	60	0	0	0	0	03/25/22:15:18:41.588837	4891.25	0	0	guy	3	0.5	0	0	silence
44	24	female	15	Probraum	1.5	22	1	phonemancaro	ex	blue.PNG	60	0	0	0	0	03/25/22:15:18:41.605795	4891.265	0	0	guy	3	0.5	0	0	silence
44	24	female	15	Probraum	1.5	22	1	phonemancaro	ex	blue.PNG	60	0	0	0	0	03/25/22:15:18:41.621751	4891.281	0	0	guy	3	0.5	0	0	silence
44	24	female	15	Probraum	1.5	22	1	phonemancaro	ex	blue.PNG	60	0	0	0	0	03/25/22:15:18:41.638704	4891.296	0	0	guy	3	0.5	0	0	silence
44	24	female	15	Probraum	1.5	22	1	phonemancaro	ex	blue.PNG	60	0	0	0	0	03/25/22:15:18:41.655659	4891.312	0	0	guy	3	0.5	0	0	silence
44	24	female	15	Probraum	1.5	22	1	phonemancaro	ex	blue.PNG	60	0	0	0	0	03/25/22:15:18:41.672616	4891.328	0	0	guy	3	0.5	0	0	silence
44	24	female	15	Probraum	1.5	22	1	phonemancaro	ex	blue.PNG	60	0	0	0	0	03/25/22:15:18:41.688574	4891.343	0	0	guy	3	0.5	0	0	silence
44	24	female	15	Probraum	1.5	22	1	phonemancaro	ex	blue.PNG	60	0	0	0	0	03/25/22:15:18:41.705526	4891.359	0	0	guy	3	0.5	0	0	silence
44	24	female	15	Probraum	1.5	22	1	phonemancaro	ex	blue.PNG	60	0	0	0	0	03/25/22:15:18:41.722483	4891.375	0	0	guy	3	0.5	0	0	silence
44	24	female	15	Probraum	1.5	22	1	phonemancaro	ex	blue.PNG	60	0	0	0	0	03/25/22:15:18:41.739438	4891.39	0	0	guy	3	0.5	0	0	silence
44	24	female	15	Probraum	1.5	22	1	phonemancaro	ex	blue.PNG	60	0	0	0	0	03/25/22:15:18:41.755392	4891.406	0	0	guy	3	0.5	0	0	silence
44	24	female	15	Probraum	1.5	22	1	phonemancaro	ex	blue.PNG	60	0	0	0	0	03/25/22:15:18:41.772350	4891.421	0	0	guy	3	0.5	0	0	silence
44	24	female	15	Probraum	1.5	22	1	phonemancaro	ex	blue.PNG	60	0	0	0	0	03/25/22:15:18:41.789304	4891.453	0	0	guy	3	0.5	0	0	silence
44	24	female	15	Probraum	1.5	22	1	phonemancaro	ex	blue.PNG	60	0	0	0	0	03/25/22:15:18:41.805262	4891.468	0	0	guy	3	0.5	0	0	silence
44	24	female	15	Probraum	1.5	22	1	phonemancaro	ex	blue.PNG	60	0	0	0	0	03/25/22:15:18:41.822214	4891.484	0	0	guy	3	0.5	0	0	silence
44	24	female	15	Probraum	1.5	22	1	phonemancaro	ex	blue.PNG	60	0	0	0	0	03/25/22:15:18:41.839169	4891.5	0	0	guy	3	0.5	0	0	silence
44	24	female	15	Probraum	1.5	22	1	phonemancaro	ex	blue.PNG	60	0	0	0	0	03/25/22:15:18:41.856125	4891.515	0	0	guy	3	0.5	0	0	silence
44	24	female	15	Probraum	1.5	22	1	phonemancaro	ex	blue.PNG	60	0	0	0	0	03/25/22:15:18:41.872081	4891.531	0	0	guy	3	0.5	0	0	silence
44	24	female	15	Probraum	1.5	22	1	phonemancaro	ex	blue.PNG	60	0	0	0	0	03/25/22:15:18:41.889035	4891.546	0	0	opp	3	0.5	0	0	silence
44	24	female	15	Probraum	1.5	22	1	phonemancaro	ex	blue.PNG	60	0	0	0	0	03/25/22:15:18:41.905992	4891.562	0	0	opp	3	0.5	0	0	silence
44	24	female	15	Probraum	1.5	22	1	phonemancaro	ex	blue.PNG	60	0	0	0	0	03/25/22:15:18:41.921947	4891.578	0	0	opp	3	0.5	0	0	silence
44	24	female	15	Probraum	1.5	22	1	phonemancaro	ex	blue.PNG	60	0	0	0	0	03/25/22:15:18:41.938903	4891.593	0	0	opp	3	0.5	0	0	silence
44	24	female	15	Probraum	1.5	22	1	phonemancaro	ex	blue.PNG	60	0	0	0	0	03/25/22:15:18:41.955856	4891.609	0	0	opp	3	0.5	0	0	silence
44	24	female	15	Probraum	1.5	22	1	phonemancaro	ex	blue.PNG	60	0	0	0	0	03/25/22:15:18:41.972813	4891.625	0	0	opp	3	0.5	0	0	silence
44	24	female	15	Probraum	1.5	22	1	phonemancaro	ex	blue.PNG	60	0	0	0	0	03/25/22:15:18:41.988824	4891.64	0	0	opp	3	0.5	0	0	silence
44	24	female	15	Probraum	1.5	22	1	phonemancaro	ex	blue.PNG	60	0	0	0	0	03/25/22:15:18:42.005781	4891.656	0	0	opp	3	0.5	0	0	silence
44	24	female	15	Probraum	1.5	22	1	phonemancaro	ex	blue.PNG	60	0	0	0	0	03/25/22:15:18:42.022733	4891.671	0	0	opp	3	0.5	0	0	silence
44	24	female	15	Probraum	1.5	22	1	phonemancaro	ex	blue.PNG	60	0	0	0	0	03/25/22:15:18:42.038693	4891.703	0	0	opp	3	0.5	0	0	silence
44	24	female	15	Probraum	1.5	22	1	phonemancaro	ex	blue.PNG	60	0	0	0	0	03/25/22:15:18:42.055645	4891.718	0	0	opp	3	0.5	0	0	silence
44	24	female	15	Probraum	1.5	22	1	phonemancaro	ex	blue.PNG	60	0	0	0	0	03/25/22:15:18:42.072602	4891.734	0	0	opp	3	0.5	0	0	silence
44	24	female	15	Probraum	1.5	22	1	phonemancaro	ex	blue.PNG	60	0	0	0	0	03/25/22:15:18:42.089555	4891.75	0	0	opp	3	0.5	0	0	silence
44	24	female	15	Probraum	1.5	22	1	phonemancaro	ex	blue.PNG	60	0	0	0	0	03/25/22:15:18:42.105521	4891.765	0	0	opp	3	0.5	0	0	silence
44	24	female	15	Probraum	1.5	22	1	phonemancaro	ex	blue.PNG	60	0	0	0	0	03/25/22:15:18:42.122476	4891.781	0	0	opp	3	0.5	0	0	silence
44	24	female	15	Probraum	1.5	22	1	phonemancaro	ex	blue.PNG	60	0	0	0	0	03/25/22:15:18:42.139431	4891.796	0	0	opp	3	0.5	0	0	silence
44	24	female	15	Probraum	1.5	22	1	phonemancaro	ex	blue.PNG	60	0	0	0	0	03/25/22:15:18:42.155386	4891.812	0	0	opp	3	0.5	0	0	silence
44	24	female	15	Probraum	1.5	22	1	phonemancaro	ex	blue.PNG	60	0	0	0	0	03/25/22:15:18:42.172343	4891.828	0	0	opp	3	0.5	0	0	silence
44	24	female	15	Probraum	1.5	22	1	phonemancaro	ex	blue.PNG	60	0	0	0	0	03/25/22:15:18:42.189295	4891.843	0	0	opp	3	0.5	0	0	silence
44	24	female	15	Probraum	1.5	22	1	phonemancaro	ex	blue.PNG	60	0	0	0	0	03/25/22:15:18:42.206252	4891.859	0	0	opp	3	0.5	0	0	silence
44	24	female	15	Probraum	1.5	22	1	phonemancaro	ex	blue.PNG	60	0	0	0	0	03/25/22:15:18:42.222210	4891.875	0	0	opp	3	0.5	0	0	silence
44	24	female	15	Probraum	1.5	22	1	phonemancaro	ex	blue.PNG	60	0	0	0	0	03/25/22:15:18:42.239164	4891.89	0	0	opp	3	0.5	0	0	silence
44	24	female	15	Probraum	1.5	22	1	phonemancaro	ex	blue.PNG	60	0	0	0	0	03/25/22:15:18:42.256116	4891.906	0	0	opp	3	0.5	0	0	silence
44	24	female	15	Probraum	1.5	22	1	phonemancaro	ex	blue.PNG	60	0	0	0	0	03/25/22:15:18:42.272076	4891.921	0	0	opp	3	0.5	0	0	silence
44	24	female	15	Probraum	1.5	22	1	phonemancaro	ex	blue.PNG	60	0	0	0	0	03/25/22:15:18:42.289028	4891.953	0	0	opp	3	0.5	0	0	silence
44	24	female	15	Probraum	1.5	22	1	phonemancaro	ex	blue.PNG	60	0	0	0	0	03/25/22:15:18:42.305985	4891.968	0	0	opp	3	0.5	0	0	silence
44	24	female	15	Probraum	1.5	22	1	phonemancaro	ex	blue.PNG	60	0	0	0	0	03/25/22:15:18:42.322940	4891.984	0	0	opp	3	0.5	0	0	silence
44	24	female	15	Probraum	1.5	22	1	phonemancaro	ex	blue.PNG	60	0	0	0	0	03/25/22:15:18:42.338895	4892.0	0	0	opp	3	0.5	0	0	silence
44	24	female	15	Probraum	1.5	22	1	phonemancaro	ex	blue.PNG	60	0	0	0	0	03/25/22:15:18:42.355852	4892.015	0	0	opp	3	0.5	0	0	silence
44	24	female	15	Probraum	1.5	22	1	phonemancaro	ex	blue.PNG	60	0	0	0	0	03/25/22:15:18:42.372804	4892.031	0	0	opp	3	0.5	0	0	silence
44	24	female	15	Probraum	1.5	22	1	phonemancaro	ex	blue.PNG	60	0	0	0	0	03/25/22:15:18:42.388764	4892.046	0	0	opp	3	0.5	0	0	silence
44	24	female	15	Probraum	1.5	22	1	phonemancaro	ex	blue.PNG	60	0	0	0	0	03/25/22:15:18:42.405716	4892.062	0	C	follow up	3	0.5	0	0	silence
44	24	female	15	Probraum	1.5	22	1	controlguy	ex	yellow.PNG	60	0	0	0	0	03/25/22:15:18:47.510067	4897.171	0	0	onset	3	0.5	0	0	iti_startle
44	24	female	15	Probraum	1.5	22	1	controlguy	ex	yellow.PNG	60	0	0	0	0	03/25/22:15:18:47.648697	4897.312	0	0	anticipation	3	0.5	0	0	iti_startle
44	24	female	15	Probraum	1.5	22	1	controlguy	ex	yellow.PNG	60	0	0	0	0	03/25/22:15:18:47.764388	4897.421	0	0	anticipation	3	0.5	0	0	iti_startle
44	24	female	15	Probraum	1.5	22	1	controlguy	ex	yellow.PNG	60	0	0	0	0	03/25/22:15:18:47.880078	4897.531	0	0	anticipation	3	0.5	0	0	iti_startle
44	24	female	15	Probraum	1.5	22	1	controlguy	ex	yellow.PNG	60	0	0	0	0	03/25/22:15:18:47.993771	4897.656	0	0	anticipation	3	0.5	0	0	iti_startle
44	24	female	15	Probraum	1.5	22	1	controlguy	ex	yellow.PNG	60	0	0	0	0	03/25/22:15:18:48.108467	4897.765	0	0	anticipation	3	0.5	0	0	iti_startle
44	24	female	15	Probraum	1.5	22	1	controlguy	ex	yellow.PNG	60	0	0	0	0	03/25/22:15:18:48.222163	4897.875	0	0	anticipation	3	0.5	0	0	iti_startle
44	24	female	15	Probraum	1.5	22	1	controlguy	ex	yellow.PNG	60	0	0	0	0	03/25/22:15:18:48.345832	4898.0	0	0	anticipation	3	0.5	0	0	iti_startle
44	24	female	15	Probraum	1.5	22	1	controlguy	ex	yellow.PNG	60	0	0	0	0	03/25/22:15:18:48.459528	4898.109	0	0	anticipation	3	0.5	0	0	iti_startle
44	24	female	15	Probraum	1.5	22	1	controlguy	ex	yellow.PNG	60	0	0	0	0	03/25/22:15:18:48.573224	4898.234	0	0	anticipation	3	0.5	0	0	iti_startle
44	24	female	15	Probraum	1.5	22	1	controlguy	ex	yellow.PNG	60	0	0	0	0	03/25/22:15:18:48.688915	4898.343	0	0	anticipation	3	0.5	0	0	iti_startle
44	24	female	15	Probraum	1.5	22	1	controlguy	ex	yellow.PNG	60	0	0	0	0	03/25/22:15:18:48.802611	4898.453	0	0	anticipation	3	0.5	0	0	iti_startle
44	24	female	15	Probraum	1.5	22	1	controlguy	ex	yellow.PNG	60	0	0	0	0	03/25/22:15:18:48.917304	4898.578	0	0	anticipation	3	0.5	0	0	iti_startle
44	24	female	15	Probraum	1.5	22	1	controlguy	ex	yellow.PNG	60	0	0	0	0	03/25/22:15:18:49.031998	4898.687	0	0	anticipation	3	0.5	0	0	iti_startle
44	24	female	15	Probraum	1.5	22	1	controlguy	ex	yellow.PNG	60	0	0	0	0	03/25/22:15:18:49.147688	4898.796	0	0	anticipation	3	0.5	0	0	iti_startle
44	24	female	15	Probraum	1.5	22	1	controlguy	ex	yellow.PNG	60	0	0	0	0	03/25/22:15:18:49.262379	4898.921	0	0	anticipation	3	0.5	0	0	iti_startle
44	24	female	15	Probraum	1.5	22	1	controlguy	ex	yellow.PNG	60	0	0	0	0	03/25/22:15:18:49.377074	4899.031	0	0	anticipation	3	0.5	0	0	iti_startle
44	24	female	15	Probraum	1.5	22	1	controlguy	ex	yellow.PNG	60	0	0	0	0	03/25/22:15:18:49.491767	4899.156	0	0	anticipation	3	0.5	0	0	iti_startle
44	24	female	15	Probraum	1.5	22	1	controlguy	ex	yellow.PNG	60	0	0	0	0	03/25/22:15:18:49.605464	4899.265	0	0	anticipation	3	0.5	0	0	iti_startle
44	24	female	15	Probraum	1.5	22	1	controlguy	ex	yellow.PNG	60	0	0	0	0	03/25/22:15:18:49.718162	4899.375	0	0	anticipation	3	0.5	0	0	iti_startle
44	24	female	15	Probraum	1.5	22	1	controlguy	ex	yellow.PNG	60	0	0	0	0	03/25/22:15:18:49.832856	4899.484	0	0	anticipation	3	0.5	0	0	iti_startle
44	24	female	15	Probraum	1.5	22	1	controlguy	ex	yellow.PNG	60	0	0	0	0	03/25/22:15:18:49.946552	4899.609	0	0	anticipation	3	0.5	0	0	iti_startle
44	24	female	15	Probraum	1.5	22	1	controlguy	ex	yellow.PNG	60	0	0	0	0	03/25/22:15:18:50.060247	4899.718	0	0	anticipation	3	0.5	0	0	iti_startle
44	24	female	15	Probraum	1.5	22	1	controlguy	ex	yellow.PNG	60	0	0	0	0	03/25/22:15:18:50.173943	4899.828	0	0	anticipation	3	0.5	0	0	iti_startle
44	24	female	15	Probraum	1.5	22	1	controlguy	ex	yellow.PNG	60	0	0	0	0	03/25/22:15:18:50.287638	4899.937	0	0	anticipation	3	0.5	0	0	iti_startle
44	24	female	15	Probraum	1.5	22	1	controlguy	ex	yellow.PNG	60	0	0	0	0	03/25/22:15:18:50.400339	4900.062	0	0	anticipation	3	0.5	0	0	iti_startle
44	24	female	15	Probraum	1.5	22	1	controlguy	ex	yellow.PNG	60	0	0	0	0	03/25/22:15:18:50.512039	4900.171	0	0	anticipation	3	0.5	0	0	iti_startle
44	24	female	15	Probraum	1.5	22	1	controlguy	ex	yellow.PNG	60	0	0	0	0	03/25/22:15:18:50.625735	4900.281	0	0	anticipation	3	0.5	0	0	iti_startle
44	24	female	15	Probraum	1.5	22	1	controlguy	ex	yellow.PNG	60	0	0	0	0	03/25/22:15:18:50.739431	4900.39	0	0	anticipation	3	0.5	0	0	iti_startle
44	24	female	15	Probraum	1.5	22	1	controlguy	ex	yellow.PNG	60	0	0	0	0	03/25/22:15:18:50.854125	4900.515	0	0	anticipation	3	0.5	0	0	iti_startle
44	24	female	15	Probraum	1.5	22	1	controlguy	ex	yellow.PNG	60	0	0	0	0	03/25/22:15:18:50.967820	4900.625	0	0	anticipation	3	0.5	0	0	iti_startle
44	24	female	15	Probraum	1.5	22	1	controlguy	ex	yellow.PNG	60	0	0	0	0	03/25/22:15:18:51.082513	4900.734	0	0	anticipation	3	0.5	0	0	iti_startle
44	24	female	15	Probraum	1.5	22	1	controlguy	ex	yellow.PNG	60	0	0	0	0	03/25/22:15:18:51.197206	4900.859	0	0	anticipation	3	0.5	0	0	iti_startle
44	24	female	15	Probraum	1.5	22	1	controlguy	ex	yellow.PNG	60	0	0	0	0	03/25/22:15:18:51.310903	4900.968	0	0	anticipation	3	0.5	0	0	iti_startle
44	24	female	15	Probraum	1.5	22	1	controlguy	ex	yellow.PNG	60	0	0	0	0	03/25/22:15:18:51.424599	4901.078	0	0	anticipation	3	0.5	0	0	iti_startle
44	24	female	15	Probraum	1.5	22	1	controlguy	ex	yellow.PNG	60	0	0	0	0	03/25/22:15:18:51.537297	4901.187	0	0	anticipation	3	0.5	0	0	iti_startle
44	24	female	15	Probraum	1.5	22	1	controlguy	ex	yellow.PNG	60	0	0	0	0	03/25/22:15:18:51.650993	4901.312	0	0	anticipation	3	0.5	0	0	iti_startle
44	24	female	15	Probraum	1.5	22	1	controlguy	ex	yellow.PNG	60	0	0	0	0	03/25/22:15:18:51.765686	4901.421	0	0	anticipation	3	0.5	0	0	iti_startle
44	24	female	15	Probraum	1.5	22	1	controlguy	ex	yellow.PNG	60	0	0	0	0	03/25/22:15:18:51.879383	4901.531	0	0	anticipation	3	0.5	0	0	iti_startle
44	24	female	15	Probraum	1.5	22	1	controlguy	ex	yellow.PNG	60	0	0	0	0	03/25/22:15:18:51.992080	4901.656	0	0	anticipation	3	0.5	0	0	iti_startle
44	24	female	15	Probraum	1.5	22	1	controlguy	ex	yellow.PNG	60	0	0	0	0	03/25/22:15:18:52.106774	4901.765	0	0	anticipation	3	0.5	0	0	iti_startle
44	24	female	15	Probraum	1.5	22	1	controlguy	ex	yellow.PNG	60	0	0	0	0	03/25/22:15:18:52.221467	4901.875	0	0	anticipation	3	0.5	0	0	iti_startle
44	24	female	15	Probraum	1.5	22	1	controlguy	ex	yellow.PNG	60	0	0	0	0	03/25/22:15:18:52.335164	4901.984	0	0	anticipation	3	0.5	0	0	iti_startle
44	24	female	15	Probraum	1.5	22	1	controlguy	ex	yellow.PNG	60	0	0	0	0	03/25/22:15:18:52.450852	4902.109	0	0	anticipation	3	0.5	0	0	iti_startle
44	24	female	15	Probraum	1.5	22	1	controlguy	ex	yellow.PNG	60	0	0	0	0	03/25/22:15:18:52.562555	4902.218	0	0	anticipation	3	0.5	0	0	iti_startle
44	24	female	15	Probraum	1.5	22	1	controlguy	ex	yellow.PNG	60	0	0	0	0	03/25/22:15:18:52.676251	4902.328	0	0	anticipation	3	0.5	0	0	iti_startle
44	24	female	15	Probraum	1.5	22	1	controlguy	ex	yellow.PNG	60	0	0	0	0	03/25/22:15:18:52.790944	4902.453	0	0	anticipation	3	0.5	0	0	iti_startle
44	24	female	15	Probraum	1.5	22	1	controlguy	ex	yellow.PNG	60	0	0	0	0	03/25/22:15:18:52.905638	4902.562	0	0	anticipation	3	0.5	0	0	iti_startle
44	24	female	15	Probraum	1.5	22	1	controlguy	ex	yellow.PNG	60	0	0	0	0	03/25/22:15:18:53.021328	4902.671	0	0	anticipation	3	0.5	0	0	iti_startle
44	24	female	15	Probraum	1.5	22	1	controlguy	ex	yellow.PNG	60	0	0	0	0	03/25/22:15:18:53.135024	4902.796	0	0	anticipation	3	0.5	0	0	iti_startle
44	24	female	15	Probraum	1.5	22	1	controlguy	ex	yellow.PNG	60	0	0	0	0	03/25/22:15:18:53.248720	4902.906	0	0	anticipation	3	0.5	0	0	iti_startle
44	24	female	15	Probraum	1.5	22	1	controlguy	ex	yellow.PNG	60	0	0	0	0	03/25/22:15:18:53.363414	4903.015	0	0	anticipation	3	0.5	0	0	iti_startle
44	24	female	15	Probraum	1.5	22	1	controlguy	ex	yellow.PNG	60	0	0	0	0	03/25/22:15:18:53.476112	4903.14	0	0	anticipation	3	0.5	0	0	iti_startle
44	24	female	15	Probraum	1.5	22	1	controlguy	ex	yellow.PNG	60	0	0	0	0	03/25/22:15:18:53.589808	4903.25	0	0	anticipation	3	0.5	0	0	iti_startle
44	24	female	15	Probraum	1.5	22	1	controlguy	ex	yellow.PNG	60	0	0	0	0	03/25/22:15:18:53.704501	4903.359	0	0	anticipation	3	0.5	0	0	iti_startle
44	24	female	15	Probraum	1.5	22	1	controlguy	ex	yellow.PNG	60	0	0	0	0	03/25/22:15:18:53.706496	4903.359	0	0	guy	3	0.5	0	0	iti_startle
44	24	female	15	Probraum	1.5	22	1	controlguy	ex	yellow.PNG	60	0	0	0	0	03/25/22:15:18:53.721456	4903.375	0	0	guy	3	0.5	0	0	iti_startle
44	24	female	15	Probraum	1.5	22	1	controlguy	ex	yellow.PNG	60	0	0	0	0	03/25/22:15:18:53.738410	4903.39	0	0	guy	3	0.5	0	0	iti_startle
44	24	female	15	Probraum	1.5	22	1	controlguy	ex	yellow.PNG	60	0	0	0	0	03/25/22:15:18:53.755365	4903.406	0	0	guy	3	0.5	0	0	iti_startle
44	24	female	15	Probraum	1.5	22	1	controlguy	ex	yellow.PNG	60	0	0	0	0	03/25/22:15:18:53.772319	4903.421	0	0	guy	3	0.5	0	0	iti_startle
44	24	female	15	Probraum	1.5	22	1	controlguy	ex	yellow.PNG	60	0	0	0	0	03/25/22:15:18:53.789274	4903.453	0	0	guy	3	0.5	0	0	iti_startle
44	24	female	15	Probraum	1.5	22	1	controlguy	ex	yellow.PNG	60	0	0	0	0	03/25/22:15:18:53.806238	4903.468	0	0	guy	3	0.5	0	0	iti_startle
44	24	female	15	Probraum	1.5	22	1	controlguy	ex	yellow.PNG	60	0	0	0	0	03/25/22:15:18:53.822195	4903.484	0	0	guy	3	0.5	0	0	iti_startle
44	24	female	15	Probraum	1.5	22	1	controlguy	ex	yellow.PNG	60	0	0	0	0	03/25/22:15:18:53.839150	4903.5	0	0	guy	3	0.5	0	0	iti_startle
44	24	female	15	Probraum	1.5	22	1	controlguy	ex	yellow.PNG	60	0	0	0	0	03/25/22:15:18:53.856104	4903.515	0	0	guy	3	0.5	0	0	iti_startle
44	24	female	15	Probraum	1.5	22	1	controlguy	ex	yellow.PNG	60	0	0	0	0	03/25/22:15:18:53.873059	4903.531	0	0	guy	3	0.5	0	0	iti_startle
44	24	female	15	Probraum	1.5	22	1	controlguy	ex	yellow.PNG	60	0	0	0	0	03/25/22:15:18:53.889016	4903.546	0	0	guy	3	0.5	0	0	iti_startle
44	24	female	15	Probraum	1.5	22	1	controlguy	ex	yellow.PNG	60	0	0	0	0	03/25/22:15:18:53.905971	4903.562	0	0	guy	3	0.5	0	0	iti_startle
44	24	female	15	Probraum	1.5	22	1	controlguy	ex	yellow.PNG	60	0	0	0	0	03/25/22:15:18:53.923923	4903.578	0	0	guy	3	0.5	0	0	iti_startle
44	24	female	15	Probraum	1.5	22	1	controlguy	ex	yellow.PNG	60	0	0	0	0	03/25/22:15:18:53.938883	4903.593	0	0	guy	3	0.5	0	0	iti_startle
44	24	female	15	Probraum	1.5	22	1	controlguy	ex	yellow.PNG	60	0	0	0	0	03/25/22:15:18:53.955838	4903.609	0	0	guy	3	0.5	0	0	iti_startle
44	24	female	15	Probraum	1.5	22	1	controlguy	ex	yellow.PNG	60	0	0	0	0	03/25/22:15:18:53.972793	4903.625	0	0	guy	3	0.5	0	0	iti_startle
44	24	female	15	Probraum	1.5	22	1	controlguy	ex	yellow.PNG	60	0	0	0	0	03/25/22:15:18:53.988751	4903.64	0	0	guy	3	0.5	0	0	iti_startle
44	24	female	15	Probraum	1.5	22	1	controlguy	ex	yellow.PNG	60	0	0	0	0	03/25/22:15:18:54.005704	4903.656	0	0	guy	3	0.5	0	0	iti_startle
44	24	female	15	Probraum	1.5	22	1	controlguy	ex	yellow.PNG	60	0	0	0	0	03/25/22:15:18:54.022659	4903.671	0	0	guy	3	0.5	0	0	iti_startle
44	24	female	15	Probraum	1.5	22	1	controlguy	ex	yellow.PNG	60	0	0	0	0	03/25/22:15:18:54.039614	4903.703	0	0	guy	3	0.5	0	0	iti_startle
44	24	female	15	Probraum	1.5	22	1	controlguy	ex	yellow.PNG	60	0	0	0	0	03/25/22:15:18:54.055572	4903.718	0	0	guy	3	0.5	0	0	iti_startle
44	24	female	15	Probraum	1.5	22	1	controlguy	ex	yellow.PNG	60	0	0	0	0	03/25/22:15:18:54.072526	4903.734	0	0	guy	3	0.5	0	0	iti_startle
44	24	female	15	Probraum	1.5	22	1	controlguy	ex	yellow.PNG	60	0	0	0	0	03/25/22:15:18:54.089481	4903.75	0	0	guy	3	0.5	0	0	iti_startle
44	24	female	15	Probraum	1.5	22	1	controlguy	ex	yellow.PNG	60	0	0	0	0	03/25/22:15:18:54.105438	4903.765	0	0	guy	3	0.5	0	0	iti_startle
44	24	female	15	Probraum	1.5	22	1	controlguy	ex	yellow.PNG	60	0	0	0	0	03/25/22:15:18:54.122392	4903.781	0	0	guy	3	0.5	0	0	iti_startle
44	24	female	15	Probraum	1.5	22	1	controlguy	ex	yellow.PNG	60	0	0	0	0	03/25/22:15:18:54.139347	4903.796	0	0	guy	3	0.5	0	0	iti_startle
44	24	female	15	Probraum	1.5	22	1	controlguy	ex	yellow.PNG	60	0	0	0	0	03/25/22:15:18:54.156302	4903.812	0	0	guy	3	0.5	0	0	iti_startle
44	24	female	15	Probraum	1.5	22	1	controlguy	ex	yellow.PNG	60	0	0	0	0	03/25/22:15:18:54.172259	4903.828	0	0	guy	3	0.5	0	0	iti_startle
44	24	female	15	Probraum	1.5	22	1	controlguy	ex	yellow.PNG	60	0	0	0	0	03/25/22:15:18:54.189214	4903.843	0	0	guy	3	0.5	0	0	iti_startle
44	24	female	15	Probraum	1.5	22	1	controlguy	ex	yellow.PNG	60	0	0	0	0	03/25/22:15:18:54.206169	4903.859	0	0	guy	3	0.5	0	0	iti_startle
44	24	female	15	Probraum	1.5	22	1	controlguy	ex	yellow.PNG	60	0	0	0	0	03/25/22:15:18:54.222125	4903.875	0	0	guy	3	0.5	0	0	iti_startle
44	24	female	15	Probraum	1.5	22	1	controlguy	ex	yellow.PNG	60	0	0	0	0	03/25/22:15:18:54.239080	4903.89	0	0	guy	3	0.5	0	0	iti_startle
44	24	female	15	Probraum	1.5	22	1	controlguy	ex	yellow.PNG	60	0	0	0	0	03/25/22:15:18:54.256035	4903.906	0	0	guy	3	0.5	0	0	iti_startle
44	24	female	15	Probraum	1.5	22	1	controlguy	ex	yellow.PNG	60	0	0	0	0	03/25/22:15:18:54.272990	4903.937	0	0	guy	3	0.5	0	0	iti_startle
44	24	female	15	Probraum	1.5	22	1	controlguy	ex	yellow.PNG	60	0	0	0	0	03/25/22:15:18:54.288947	4903.953	0	0	guy	3	0.5	0	0	iti_startle
44	24	female	15	Probraum	1.5	22	1	controlguy	ex	yellow.PNG	60	0	0	0	0	03/25/22:15:18:54.305901	4903.968	0	0	guy	3	0.5	0	0	iti_startle
44	24	female	15	Probraum	1.5	22	1	controlguy	ex	yellow.PNG	60	0	0	0	0	03/25/22:15:18:54.322856	4903.984	0	0	guy	3	0.5	0	0	iti_startle
44	24	female	15	Probraum	1.5	22	1	controlguy	ex	yellow.PNG	60	0	0	0	0	03/25/22:15:18:54.338821	4904.0	0	0	guy	3	0.5	0	0	iti_startle
44	24	female	15	Probraum	1.5	22	1	controlguy	ex	yellow.PNG	60	0	0	0	0	03/25/22:15:18:54.355775	4904.015	0	0	guy	3	0.5	0	0	iti_startle
44	24	female	15	Probraum	1.5	22	1	controlguy	ex	yellow.PNG	60	0	0	0	0	03/25/22:15:18:54.372731	4904.031	0	0	guy	3	0.5	0	0	iti_startle
44	24	female	15	Probraum	1.5	22	1	controlguy	ex	yellow.PNG	60	0	0	0	0	03/25/22:15:18:54.389685	4904.046	0	0	guy	3	0.5	0	0	iti_startle
44	24	female	15	Probraum	1.5	22	1	controlguy	ex	yellow.PNG	60	0	0	0	0	03/25/22:15:18:54.405643	4904.062	0	0	guy	3	0.5	0	0	iti_startle
44	24	female	15	Probraum	1.5	22	1	controlguy	ex	yellow.PNG	60	0	0	0	0	03/25/22:15:18:54.422597	4904.078	0	0	guy	3	0.5	0	0	iti_startle
44	24	female	15	Probraum	1.5	22	1	controlguy	ex	yellow.PNG	60	0	0	0	0	03/25/22:15:18:54.439551	4904.093	0	0	guy	3	0.5	0	0	iti_startle
44	24	female	15	Probraum	1.5	22	1	controlguy	ex	yellow.PNG	60	0	0	0	0	03/25/22:15:18:54.455509	4904.109	0	0	guy	3	0.5	0	0	iti_startle
44	24	female	15	Probraum	1.5	22	1	controlguy	ex	yellow.PNG	60	0	0	0	0	03/25/22:15:18:54.472464	4904.125	0	0	guy	3	0.5	0	0	iti_startle
44	24	female	15	Probraum	1.5	22	1	controlguy	ex	yellow.PNG	60	0	0	0	0	03/25/22:15:18:54.489418	4904.14	0	0	guy	3	0.5	0	0	iti_startle
44	24	female	15	Probraum	1.5	22	1	controlguy	ex	yellow.PNG	60	0	0	0	0	03/25/22:15:18:54.505375	4904.156	0	0	guy	3	0.5	0	0	iti_startle
44	24	female	15	Probraum	1.5	22	1	controlguy	ex	yellow.PNG	60	0	0	0	0	03/25/22:15:18:54.522330	4904.171	0	0	guy	3	0.5	0	0	iti_startle
44	24	female	15	Probraum	1.5	22	1	controlguy	ex	yellow.PNG	60	0	0	0	0	03/25/22:15:18:54.539285	4904.203	0	0	guy	3	0.5	0	0	iti_startle
44	24	female	15	Probraum	1.5	22	1	controlguy	ex	yellow.PNG	60	0	0	0	0	03/25/22:15:18:54.555242	4904.218	0	0	guy	3	0.5	0	0	iti_startle
44	24	female	15	Probraum	1.5	22	1	controlguy	ex	yellow.PNG	60	0	0	0	0	03/25/22:15:18:54.572197	4904.234	0	0	guy	3	0.5	0	0	iti_startle
44	24	female	15	Probraum	1.5	22	1	controlguy	ex	yellow.PNG	60	0	0	0	0	03/25/22:15:18:54.589151	4904.25	0	0	guy	3	0.5	0	0	iti_startle
44	24	female	15	Probraum	1.5	22	1	controlguy	ex	yellow.PNG	60	0	0	0	0	03/25/22:15:18:54.606106	4904.265	0	0	guy	3	0.5	0	0	iti_startle
44	24	female	15	Probraum	1.5	22	1	controlguy	ex	yellow.PNG	60	0	0	0	0	03/25/22:15:18:54.622063	4904.281	0	0	opp	3	0.5	0	0	iti_startle
44	24	female	15	Probraum	1.5	22	1	controlguy	ex	yellow.PNG	60	0	0	0	0	03/25/22:15:18:54.639018	4904.296	0	0	opp	3	0.5	0	0	iti_startle
44	24	female	15	Probraum	1.5	22	1	controlguy	ex	yellow.PNG	60	0	0	0	0	03/25/22:15:18:54.655973	4904.312	0	0	opp	3	0.5	0	0	iti_startle
44	24	female	15	Probraum	1.5	22	1	controlguy	ex	yellow.PNG	60	0	0	0	0	03/25/22:15:18:54.672927	4904.328	0	0	opp	3	0.5	0	0	iti_startle
44	24	female	15	Probraum	1.5	22	1	controlguy	ex	yellow.PNG	60	0	0	0	0	03/25/22:15:18:54.688938	4904.343	0	0	opp	3	0.5	0	0	iti_startle
44	24	female	15	Probraum	1.5	22	1	controlguy	ex	yellow.PNG	60	0	0	0	0	03/25/22:15:18:54.705892	4904.359	0	0	opp	3	0.5	0	0	iti_startle
44	24	female	15	Probraum	1.5	22	1	controlguy	ex	yellow.PNG	60	0	0	0	0	03/25/22:15:18:54.722849	4904.375	0	0	opp	3	0.5	0	0	iti_startle
44	24	female	15	Probraum	1.5	22	1	controlguy	ex	yellow.PNG	60	0	0	0	0	03/25/22:15:18:54.738804	4904.39	0	0	opp	3	0.5	0	0	iti_startle
44	24	female	15	Probraum	1.5	22	1	controlguy	ex	yellow.PNG	60	0	0	0	0	03/25/22:15:18:54.755759	4904.406	0	0	opp	3	0.5	0	0	iti_startle
44	24	female	15	Probraum	1.5	22	1	controlguy	ex	yellow.PNG	60	0	0	0	0	03/25/22:15:18:54.772716	4904.421	0	0	opp	3	0.5	0	0	iti_startle
44	24	female	15	Probraum	1.5	22	1	controlguy	ex	yellow.PNG	60	0	0	0	0	03/25/22:15:18:54.788671	4904.453	0	0	opp	3	0.5	0	0	iti_startle
44	24	female	15	Probraum	1.5	22	1	controlguy	ex	yellow.PNG	60	0	0	0	0	03/25/22:15:18:54.805626	4904.468	0	0	opp	3	0.5	0	0	iti_startle
44	24	female	15	Probraum	1.5	22	1	controlguy	ex	yellow.PNG	60	0	0	0	0	03/25/22:15:18:54.822581	4904.484	0	0	opp	3	0.5	0	0	iti_startle
44	24	female	15	Probraum	1.5	22	1	controlguy	ex	yellow.PNG	60	0	0	0	0	03/25/22:15:18:54.839537	4904.5	0	0	opp	3	0.5	0	0	iti_startle
44	24	female	15	Probraum	1.5	22	1	controlguy	ex	yellow.PNG	60	0	0	0	0	03/25/22:15:18:54.855492	4904.515	0	0	opp	3	0.5	0	0	iti_startle
44	24	female	15	Probraum	1.5	22	1	controlguy	ex	yellow.PNG	60	0	0	0	0	03/25/22:15:18:54.872447	4904.531	0	0	opp	3	0.5	0	0	iti_startle
44	24	female	15	Probraum	1.5	22	1	controlguy	ex	yellow.PNG	60	0	0	0	0	03/25/22:15:18:54.889401	4904.546	0	0	opp	3	0.5	0	0	iti_startle
44	24	female	15	Probraum	1.5	22	1	controlguy	ex	yellow.PNG	60	0	0	0	0	03/25/22:15:18:54.906358	4904.562	0	0	opp	3	0.5	0	0	iti_startle
44	24	female	15	Probraum	1.5	22	1	controlguy	ex	yellow.PNG	60	0	0	0	0	03/25/22:15:18:54.922313	4904.578	0	0	opp	3	0.5	0	0	iti_startle
44	24	female	15	Probraum	1.5	22	1	controlguy	ex	yellow.PNG	60	0	0	0	0	03/25/22:15:18:54.939268	4904.593	0	0	opp	3	0.5	0	0	iti_startle
44	24	female	15	Probraum	1.5	22	1	controlguy	ex	yellow.PNG	60	0	0	0	0	03/25/22:15:18:54.956225	4904.609	0	0	opp	3	0.5	0	0	iti_startle
44	24	female	15	Probraum	1.5	22	1	controlguy	ex	yellow.PNG	60	0	0	0	0	03/25/22:15:18:54.972180	4904.625	0	0	opp	3	0.5	0	0	iti_startle
44	24	female	15	Probraum	1.5	22	1	controlguy	ex	yellow.PNG	60	0	0	0	0	03/25/22:15:18:54.989134	4904.64	0	0	opp	3	0.5	0	0	iti_startle
44	24	female	15	Probraum	1.5	22	1	controlguy	ex	yellow.PNG	60	0	0	0	0	03/25/22:15:18:55.006092	4904.656	0	0	opp	3	0.5	0	0	iti_startle
44	24	female	15	Probraum	1.5	22	1	controlguy	ex	yellow.PNG	60	0	0	0	0	03/25/22:15:18:55.022047	4904.671	0	0	opp	3	0.5	0	0	iti_startle
44	24	female	15	Probraum	1.5	22	1	controlguy	ex	yellow.PNG	60	0	0	0	0	03/25/22:15:18:55.039001	4904.703	0	0	opp	3	0.5	0	0	iti_startle
44	24	female	15	Probraum	1.5	22	1	controlguy	ex	yellow.PNG	60	0	0	0	0	03/25/22:15:18:55.055956	4904.718	0	0	opp	3	0.5	0	0	iti_startle
44	24	female	15	Probraum	1.5	22	1	controlguy	ex	yellow.PNG	60	0	0	0	0	03/25/22:15:18:55.072911	4904.734	0	0	opp	3	0.5	0	0	iti_startle
44	24	female	15	Probraum	1.5	22	1	controlguy	ex	yellow.PNG	60	0	0	0	0	03/25/22:15:18:55.088868	4904.75	0	0	opp	3	0.5	0	0	iti_startle
44	24	female	15	Probraum	1.5	22	1	controlguy	ex	yellow.PNG	60	0	0	0	0	03/25/22:15:18:55.105823	4904.765	0	0	opp	3	0.5	0	0	iti_startle
44	24	female	15	Probraum	1.5	22	1	controlguy	ex	yellow.PNG	60	0	0	0	0	03/25/22:15:18:55.105823	4904.765	0	0	follow up	3	0.5	0	0	iti_startle
44	24	female	15	Probraum	1.5	22	1	phonemancaro	ex	black.PNG	60	0	0	0	0	03/25/22:15:19:05.114428	4914.765	0	0	onset	3	0.5	0	0	iti_startle
44	24	female	15	Probraum	1.5	22	1	phonemancaro	ex	black.PNG	60	0	0	0	0	03/25/22:15:19:05.232113	4914.89	0	0	anticipation	3	0.5	0	0	iti_startle
44	24	female	15	Probraum	1.5	22	1	phonemancaro	ex	black.PNG	60	0	0	0	0	03/25/22:15:19:05.344812	4915.0	0	0	anticipation	3	0.5	0	0	iti_startle
44	24	female	15	Probraum	1.5	22	1	phonemancaro	ex	black.PNG	60	0	0	0	0	03/25/22:15:19:05.457511	4915.109	0	0	anticipation	3	0.5	0	0	iti_startle
44	24	female	15	Probraum	1.5	22	1	phonemancaro	ex	black.PNG	60	0	0	0	0	03/25/22:15:19:05.568215	4915.218	0	0	anticipation	3	0.5	0	0	iti_startle
44	24	female	15	Probraum	1.5	22	1	phonemancaro	ex	black.PNG	60	0	0	0	0	03/25/22:15:19:05.679916	4915.343	0	0	anticipation	3	0.5	0	0	iti_startle
44	24	female	15	Probraum	1.5	22	1	phonemancaro	ex	black.PNG	60	0	0	0	0	03/25/22:15:19:05.791617	4915.453	0	0	anticipation	3	0.5	0	0	iti_startle
44	24	female	15	Probraum	1.5	22	1	phonemancaro	ex	black.PNG	60	0	0	0	0	03/25/22:15:19:05.903318	4915.562	0	0	anticipation	3	0.5	0	0	iti_startle
44	24	female	15	Probraum	1.5	22	1	phonemancaro	ex	black.PNG	60	0	0	0	0	03/25/22:15:19:06.015021	4915.671	0	0	anticipation	3	0.5	0	0	iti_startle
44	24	female	15	Probraum	1.5	22	1	phonemancaro	ex	black.PNG	60	0	0	0	0	03/25/22:15:19:06.125723	4915.781	0	0	anticipation	3	0.5	0	0	iti_startle
44	24	female	15	Probraum	1.5	22	1	phonemancaro	ex	black.PNG	60	0	0	0	0	03/25/22:15:19:06.237425	4915.89	0	0	anticipation	3	0.5	0	0	iti_startle
44	24	female	15	Probraum	1.5	22	1	phonemancaro	ex	black.PNG	60	0	0	0	0	03/25/22:15:19:06.350124	4916.0	0	0	anticipation	3	0.5	0	0	iti_startle
44	24	female	15	Probraum	1.5	22	1	phonemancaro	ex	black.PNG	60	0	0	0	0	03/25/22:15:19:06.460828	4916.125	0	0	anticipation	3	0.5	0	0	iti_startle
44	24	female	15	Probraum	1.5	22	1	phonemancaro	ex	black.PNG	60	0	0	0	0	03/25/22:15:19:06.573526	4916.234	0	0	anticipation	3	0.5	0	0	iti_startle
44	24	female	15	Probraum	1.5	22	1	phonemancaro	ex	black.PNG	60	0	0	0	0	03/25/22:15:19:06.686225	4916.343	0	0	anticipation	3	0.5	0	0	iti_startle
44	24	female	15	Probraum	1.5	22	1	phonemancaro	ex	black.PNG	60	0	0	0	0	03/25/22:15:19:06.799921	4916.453	0	0	anticipation	3	0.5	0	0	iti_startle
44	24	female	15	Probraum	1.5	22	1	phonemancaro	ex	black.PNG	60	0	0	0	0	03/25/22:15:19:06.911622	4916.562	0	0	anticipation	3	0.5	0	0	iti_startle
44	24	female	15	Probraum	1.5	22	1	phonemancaro	ex	black.PNG	60	0	0	0	0	03/25/22:15:19:07.024320	4916.687	0	0	anticipation	3	0.5	0	0	iti_startle
44	24	female	15	Probraum	1.5	22	1	phonemancaro	ex	black.PNG	60	0	0	0	0	03/25/22:15:19:07.136022	4916.796	0	0	anticipation	3	0.5	0	0	iti_startle
44	24	female	15	Probraum	1.5	22	1	phonemancaro	ex	black.PNG	60	0	0	0	0	03/25/22:15:19:07.248721	4916.906	0	0	anticipation	3	0.5	0	0	iti_startle
44	24	female	15	Probraum	1.5	22	1	phonemancaro	ex	black.PNG	60	0	0	0	0	03/25/22:15:19:07.360421	4917.015	0	0	anticipation	3	0.5	0	0	iti_startle
44	24	female	15	Probraum	1.5	22	1	phonemancaro	ex	black.PNG	60	0	0	0	0	03/25/22:15:19:07.472123	4917.125	0	0	anticipation	3	0.5	0	0	iti_startle
44	24	female	15	Probraum	1.5	22	1	phonemancaro	ex	black.PNG	60	0	0	0	0	03/25/22:15:19:07.582827	4917.234	0	0	anticipation	3	0.5	0	0	iti_startle
44	24	female	15	Probraum	1.5	22	1	phonemancaro	ex	black.PNG	60	0	0	0	0	03/25/22:15:19:07.695525	4917.359	0	0	anticipation	3	0.5	0	0	iti_startle
44	24	female	15	Probraum	1.5	22	1	phonemancaro	ex	black.PNG	60	0	0	0	0	03/25/22:15:19:07.808232	4917.468	0	0	anticipation	3	0.5	0	0	iti_startle
44	24	female	15	Probraum	1.5	22	1	phonemancaro	ex	black.PNG	60	0	0	0	0	03/25/22:15:19:07.919933	4917.578	0	0	anticipation	3	0.5	0	0	iti_startle
44	24	female	15	Probraum	1.5	22	1	phonemancaro	ex	black.PNG	60	0	0	0	0	03/25/22:15:19:08.031634	4917.687	0	0	anticipation	3	0.5	0	0	iti_startle
44	24	female	15	Probraum	1.5	22	1	phonemancaro	ex	black.PNG	60	0	0	0	0	03/25/22:15:19:08.143335	4917.796	0	0	anticipation	3	0.5	0	0	iti_startle
44	24	female	15	Probraum	1.5	22	1	phonemancaro	ex	black.PNG	60	0	0	0	0	03/25/22:15:19:08.256035	4917.906	0	0	anticipation	3	0.5	0	0	iti_startle
44	24	female	15	Probraum	1.5	22	1	phonemancaro	ex	black.PNG	60	0	0	0	0	03/25/22:15:19:08.367736	4918.031	0	0	anticipation	3	0.5	0	0	iti_startle
44	24	female	15	Probraum	1.5	22	1	phonemancaro	ex	black.PNG	60	0	0	0	0	03/25/22:15:19:08.477442	4918.14	0	0	anticipation	3	0.5	0	0	iti_startle
44	24	female	15	Probraum	1.5	22	1	phonemancaro	ex	black.PNG	60	0	0	0	0	03/25/22:15:19:08.589143	4918.25	0	0	anticipation	3	0.5	0	0	iti_startle
44	24	female	15	Probraum	1.5	22	1	phonemancaro	ex	black.PNG	60	0	0	0	0	03/25/22:15:19:08.700845	4918.359	0	0	anticipation	3	0.5	0	0	iti_startle
44	24	female	15	Probraum	1.5	22	1	phonemancaro	ex	black.PNG	60	0	0	0	0	03/25/22:15:19:08.813543	4918.468	0	0	anticipation	3	0.5	0	0	iti_startle
44	24	female	15	Probraum	1.5	22	1	phonemancaro	ex	black.PNG	60	0	0	0	0	03/25/22:15:19:08.925245	4918.578	0	0	anticipation	3	0.5	0	0	iti_startle
44	24	female	15	Probraum	1.5	22	1	phonemancaro	ex	black.PNG	60	0	0	0	0	03/25/22:15:19:09.036946	4918.687	0	0	anticipation	3	0.5	0	0	iti_startle
44	24	female	15	Probraum	1.5	22	1	phonemancaro	ex	black.PNG	60	0	0	0	0	03/25/22:15:19:09.148647	4918.812	0	0	anticipation	3	0.5	0	0	iti_startle
44	24	female	15	Probraum	1.5	22	1	phonemancaro	ex	black.PNG	60	0	0	0	0	03/25/22:15:19:09.261345	4918.921	0	0	anticipation	3	0.5	0	0	iti_startle
44	24	female	15	Probraum	1.5	22	1	phonemancaro	ex	black.PNG	60	0	0	0	0	03/25/22:15:19:09.373047	4919.031	0	0	anticipation	3	0.5	0	0	iti_startle
44	24	female	15	Probraum	1.5	22	1	phonemancaro	ex	black.PNG	60	0	0	0	0	03/25/22:15:19:09.484749	4919.14	0	0	anticipation	3	0.5	0	0	iti_startle
44	24	female	15	Probraum	1.5	22	1	phonemancaro	ex	black.PNG	60	0	0	0	0	03/25/22:15:19:09.597447	4919.25	0	0	anticipation	3	0.5	0	0	iti_startle
44	24	female	15	Probraum	1.5	22	1	phonemancaro	ex	black.PNG	60	0	0	0	0	03/25/22:15:19:09.711142	4919.375	0	0	anticipation	3	0.5	0	0	iti_startle
44	24	female	15	Probraum	1.5	22	1	phonemancaro	ex	black.PNG	60	0	0	0	0	03/25/22:15:19:09.823841	4919.484	0	0	anticipation	3	0.5	0	0	iti_startle
44	24	female	15	Probraum	1.5	22	1	phonemancaro	ex	black.PNG	60	0	0	0	0	03/25/22:15:19:09.936540	4919.593	0	0	anticipation	3	0.5	0	0	iti_startle
44	24	female	15	Probraum	1.5	22	1	phonemancaro	ex	black.PNG	60	0	0	0	0	03/25/22:15:19:10.049238	4919.703	0	0	anticipation	3	0.5	0	0	iti_startle
44	24	female	15	Probraum	1.5	22	1	phonemancaro	ex	black.PNG	60	0	0	0	0	03/25/22:15:19:10.161936	4919.812	0	0	anticipation	3	0.5	0	0	iti_startle
44	24	female	15	Probraum	1.5	22	1	phonemancaro	ex	black.PNG	60	0	0	0	0	03/25/22:15:19:10.273638	4919.937	0	0	anticipation	3	0.5	0	0	iti_startle
44	24	female	15	Probraum	1.5	22	1	phonemancaro	ex	black.PNG	60	0	0	0	0	03/25/22:15:19:10.385339	4920.046	0	0	anticipation	3	0.5	0	0	iti_startle
44	24	female	15	Probraum	1.5	22	1	phonemancaro	ex	black.PNG	60	0	0	0	0	03/25/22:15:19:10.497041	4920.156	0	0	anticipation	3	0.5	0	0	iti_startle
44	24	female	15	Probraum	1.5	22	1	phonemancaro	ex	black.PNG	60	0	0	0	0	03/25/22:15:19:10.609740	4920.265	0	0	anticipation	3	0.5	0	0	iti_startle
44	24	female	15	Probraum	1.5	22	1	phonemancaro	ex	black.PNG	60	0	0	0	0	03/25/22:15:19:10.722438	4920.375	0	0	anticipation	3	0.5	0	0	iti_startle
44	24	female	15	Probraum	1.5	22	1	phonemancaro	ex	black.PNG	60	0	0	0	0	03/25/22:15:19:10.835137	4920.484	0	0	anticipation	3	0.5	0	0	iti_startle
44	24	female	15	Probraum	1.5	22	1	phonemancaro	ex	black.PNG	60	0	0	0	0	03/25/22:15:19:10.946838	4920.609	0	0	anticipation	3	0.5	0	0	iti_startle
44	24	female	15	Probraum	1.5	22	1	phonemancaro	ex	black.PNG	60	0	0	0	0	03/25/22:15:19:11.060534	4920.718	0	0	anticipation	3	0.5	0	0	iti_startle
44	24	female	15	Probraum	1.5	22	1	phonemancaro	ex	black.PNG	60	0	0	0	0	03/25/22:15:19:11.173232	4920.828	0	0	anticipation	3	0.5	0	0	iti_startle
44	24	female	15	Probraum	1.5	22	1	phonemancaro	ex	black.PNG	60	0	0	0	0	03/25/22:15:19:11.188193	4920.843	0	0	guy	3	0.5	0	0	iti_startle
44	24	female	15	Probraum	1.5	22	1	phonemancaro	ex	black.PNG	60	0	0	0	0	03/25/22:15:19:11.205147	4920.859	0	0	guy	3	0.5	0	0	iti_startle
44	24	female	15	Probraum	1.5	22	1	phonemancaro	ex	black.PNG	60	0	0	0	0	03/25/22:15:19:11.222102	4920.875	0	0	guy	3	0.5	0	0	iti_startle
44	24	female	15	Probraum	1.5	22	1	phonemancaro	ex	black.PNG	60	0	0	0	0	03/25/22:15:19:11.239056	4920.89	0	0	guy	3	0.5	0	0	iti_startle
44	24	female	15	Probraum	1.5	22	1	phonemancaro	ex	black.PNG	60	0	0	0	0	03/25/22:15:19:11.256011	4920.906	0	0	guy	3	0.5	0	0	iti_startle
44	24	female	15	Probraum	1.5	22	1	phonemancaro	ex	black.PNG	60	0	0	0	0	03/25/22:15:19:11.272966	4920.937	0	0	guy	3	0.5	0	0	iti_startle
44	24	female	15	Probraum	1.5	22	1	phonemancaro	ex	black.PNG	60	0	0	0	0	03/25/22:15:19:11.288923	4920.953	0	0	guy	3	0.5	0	0	iti_startle
44	24	female	15	Probraum	1.5	22	1	phonemancaro	ex	black.PNG	60	0	0	0	0	03/25/22:15:19:11.305878	4920.968	0	0	guy	3	0.5	0	0	iti_startle
44	24	female	15	Probraum	1.5	22	1	phonemancaro	ex	black.PNG	60	0	0	0	0	03/25/22:15:19:11.322832	4920.984	0	0	guy	3	0.5	0	0	iti_startle
44	24	female	15	Probraum	1.5	22	1	phonemancaro	ex	black.PNG	60	0	0	0	0	03/25/22:15:19:11.339787	4921.0	0	0	guy	3	0.5	0	0	iti_startle
44	24	female	15	Probraum	1.5	22	1	phonemancaro	ex	black.PNG	60	0	0	0	0	03/25/22:15:19:11.355745	4921.015	0	0	guy	3	0.5	0	0	iti_startle
44	24	female	15	Probraum	1.5	22	1	phonemancaro	ex	black.PNG	60	0	0	0	0	03/25/22:15:19:11.372698	4921.031	0	0	guy	3	0.5	0	0	iti_startle
44	24	female	15	Probraum	1.5	22	1	phonemancaro	ex	black.PNG	60	0	0	0	0	03/25/22:15:19:11.389653	4921.046	0	0	guy	3	0.5	0	0	iti_startle
44	24	female	15	Probraum	1.5	22	1	phonemancaro	ex	black.PNG	60	0	0	0	0	03/25/22:15:19:11.405611	4921.062	0	0	guy	3	0.5	0	0	iti_startle
44	24	female	15	Probraum	1.5	22	1	phonemancaro	ex	black.PNG	60	0	0	0	0	03/25/22:15:19:11.422565	4921.078	0	0	guy	3	0.5	0	0	iti_startle
44	24	female	15	Probraum	1.5	22	1	phonemancaro	ex	black.PNG	60	0	0	0	0	03/25/22:15:19:11.439520	4921.093	0	0	guy	3	0.5	0	0	iti_startle
44	24	female	15	Probraum	1.5	22	1	phonemancaro	ex	black.PNG	60	0	0	0	0	03/25/22:15:19:11.455478	4921.109	0	0	guy	3	0.5	0	0	iti_startle
44	24	female	15	Probraum	1.5	22	1	phonemancaro	ex	black.PNG	60	0	0	0	0	03/25/22:15:19:11.472433	4921.125	0	0	guy	3	0.5	0	0	iti_startle
44	24	female	15	Probraum	1.5	22	1	phonemancaro	ex	black.PNG	60	0	0	0	0	03/25/22:15:19:11.489387	4921.14	0	0	guy	3	0.5	0	0	iti_startle
44	24	female	15	Probraum	1.5	22	1	phonemancaro	ex	black.PNG	60	0	0	0	0	03/25/22:15:19:11.506342	4921.156	0	0	guy	3	0.5	0	0	iti_startle
44	24	female	15	Probraum	1.5	22	1	phonemancaro	ex	black.PNG	60	0	0	0	0	03/25/22:15:19:11.522299	4921.171	0	0	guy	3	0.5	0	0	iti_startle
44	24	female	15	Probraum	1.5	22	1	phonemancaro	ex	black.PNG	60	0	0	0	0	03/25/22:15:19:11.539253	4921.203	0	0	guy	3	0.5	0	0	iti_startle
44	24	female	15	Probraum	1.5	22	1	phonemancaro	ex	black.PNG	60	0	0	0	0	03/25/22:15:19:11.556208	4921.218	0	0	guy	3	0.5	0	0	iti_startle
44	24	female	15	Probraum	1.5	22	1	phonemancaro	ex	black.PNG	60	0	0	0	0	03/25/22:15:19:11.572165	4921.234	0	0	guy	3	0.5	0	0	iti_startle
44	24	female	15	Probraum	1.5	22	1	phonemancaro	ex	black.PNG	60	0	0	0	0	03/25/22:15:19:11.589120	4921.25	0	0	guy	3	0.5	0	0	iti_startle
44	24	female	15	Probraum	1.5	22	1	phonemancaro	ex	black.PNG	60	0	0	0	0	03/25/22:15:19:11.606075	4921.265	0	0	guy	3	0.5	0	0	iti_startle
44	24	female	15	Probraum	1.5	22	1	phonemancaro	ex	black.PNG	60	0	0	0	0	03/25/22:15:19:11.623030	4921.281	0	0	guy	3	0.5	0	0	iti_startle
44	24	female	15	Probraum	1.5	22	1	phonemancaro	ex	black.PNG	60	0	0	0	0	03/25/22:15:19:11.638987	4921.296	0	0	guy	3	0.5	0	0	iti_startle
44	24	female	15	Probraum	1.5	22	1	phonemancaro	ex	black.PNG	60	0	0	0	0	03/25/22:15:19:11.655941	4921.312	0	0	guy	3	0.5	0	0	iti_startle
44	24	female	15	Probraum	1.5	22	1	phonemancaro	ex	black.PNG	60	0	0	0	0	03/25/22:15:19:11.672896	4921.328	0	0	guy	3	0.5	0	0	iti_startle
44	24	female	15	Probraum	1.5	22	1	phonemancaro	ex	black.PNG	60	0	0	0	0	03/25/22:15:19:11.688854	4921.343	0	0	guy	3	0.5	0	0	iti_startle
44	24	female	15	Probraum	1.5	22	1	phonemancaro	ex	black.PNG	60	0	0	0	0	03/25/22:15:19:11.705807	4921.359	0	0	guy	3	0.5	0	0	iti_startle
44	24	female	15	Probraum	1.5	22	1	phonemancaro	ex	black.PNG	60	0	0	0	0	03/25/22:15:19:11.722762	4921.375	0	0	guy	3	0.5	0	0	iti_startle
44	24	female	15	Probraum	1.5	22	1	phonemancaro	ex	black.PNG	60	0	0	0	0	03/25/22:15:19:11.739717	4921.39	0	0	guy	3	0.5	0	0	iti_startle
44	24	female	15	Probraum	1.5	22	1	phonemancaro	ex	black.PNG	60	0	0	0	0	03/25/22:15:19:11.755675	4921.406	0	0	guy	3	0.5	0	0	iti_startle
44	24	female	15	Probraum	1.5	22	1	phonemancaro	ex	black.PNG	60	0	0	0	0	03/25/22:15:19:11.772629	4921.421	0	0	guy	3	0.5	0	0	iti_startle
44	24	female	15	Probraum	1.5	22	1	phonemancaro	ex	black.PNG	60	0	0	0	0	03/25/22:15:19:11.789584	4921.453	0	0	guy	3	0.5	0	0	iti_startle
44	24	female	15	Probraum	1.5	22	1	phonemancaro	ex	black.PNG	60	0	0	0	0	03/25/22:15:19:11.805541	4921.468	0	0	guy	3	0.5	0	0	iti_startle
44	24	female	15	Probraum	1.5	22	1	phonemancaro	ex	black.PNG	60	0	0	0	0	03/25/22:15:19:11.822496	4921.484	0	0	guy	3	0.5	0	0	iti_startle
44	24	female	15	Probraum	1.5	22	1	phonemancaro	ex	black.PNG	60	0	0	0	0	03/25/22:15:19:11.839451	4921.5	0	0	guy	3	0.5	0	0	iti_startle
44	24	female	15	Probraum	1.5	22	1	phonemancaro	ex	black.PNG	60	0	0	0	0	03/25/22:15:19:11.856405	4921.515	0	0	guy	3	0.5	0	0	iti_startle
44	24	female	15	Probraum	1.5	22	1	phonemancaro	ex	black.PNG	60	0	0	0	0	03/25/22:15:19:11.872363	4921.531	0	0	guy	3	0.5	0	0	iti_startle
44	24	female	15	Probraum	1.5	22	1	phonemancaro	ex	black.PNG	60	0	0	0	0	03/25/22:15:19:11.889317	4921.546	0	0	guy	3	0.5	0	0	iti_startle
44	24	female	15	Probraum	1.5	22	1	phonemancaro	ex	black.PNG	60	0	0	0	0	03/25/22:15:19:11.906281	4921.562	0	0	guy	3	0.5	0	0	iti_startle
44	24	female	15	Probraum	1.5	22	1	phonemancaro	ex	black.PNG	60	0	0	0	0	03/25/22:15:19:11.922238	4921.578	0	0	guy	3	0.5	0	0	iti_startle
44	24	female	15	Probraum	1.5	22	1	phonemancaro	ex	black.PNG	60	0	0	0	0	03/25/22:15:19:11.939193	4921.593	0	0	guy	3	0.5	0	0	iti_startle
44	24	female	15	Probraum	1.5	22	1	phonemancaro	ex	black.PNG	60	0	0	0	0	03/25/22:15:19:11.956148	4921.609	0	0	guy	3	0.5	0	0	iti_startle
44	24	female	15	Probraum	1.5	22	1	phonemancaro	ex	black.PNG	60	0	0	0	0	03/25/22:15:19:11.973102	4921.625	0	0	guy	3	0.5	0	0	iti_startle
44	24	female	15	Probraum	1.5	22	1	phonemancaro	ex	black.PNG	60	0	0	0	0	03/25/22:15:19:11.989060	4921.64	0	0	guy	3	0.5	0	0	iti_startle
44	24	female	15	Probraum	1.5	22	1	phonemancaro	ex	black.PNG	60	0	0	0	0	03/25/22:15:19:12.006014	4921.656	0	0	guy	3	0.5	0	0	iti_startle
44	24	female	15	Probraum	1.5	22	1	phonemancaro	ex	black.PNG	60	0	0	0	0	03/25/22:15:19:12.022969	4921.687	0	0	guy	3	0.5	0	0	iti_startle
44	24	female	15	Probraum	1.5	22	1	phonemancaro	ex	black.PNG	60	0	0	0	0	03/25/22:15:19:12.038926	4921.703	0	0	guy	3	0.5	0	0	iti_startle
44	24	female	15	Probraum	1.5	22	1	phonemancaro	ex	black.PNG	60	0	0	0	0	03/25/22:15:19:12.055881	4921.718	0	0	guy	3	0.5	0	0	iti_startle
44	24	female	15	Probraum	1.5	22	1	phonemancaro	ex	black.PNG	60	0	0	0	0	03/25/22:15:19:12.072836	4921.734	0	0	guy	3	0.5	0	0	iti_startle
44	24	female	15	Probraum	1.5	22	1	phonemancaro	ex	black.PNG	60	0	0	0	0	03/25/22:15:19:12.089790	4921.75	0	0	guy	3	0.5	0	0	iti_startle
44	24	female	15	Probraum	1.5	22	1	phonemancaro	ex	black.PNG	60	0	0	0	0	03/25/22:15:19:12.105748	4921.765	0	0	opp	3	0.5	0	0	iti_startle
44	24	female	15	Probraum	1.5	22	1	phonemancaro	ex	black.PNG	60	0	0	0	0	03/25/22:15:19:12.122702	4921.781	0	0	opp	3	0.5	0	0	iti_startle
44	24	female	15	Probraum	1.5	22	1	phonemancaro	ex	black.PNG	60	0	0	0	0	03/25/22:15:19:12.139664	4921.796	0	0	opp	3	0.5	0	0	iti_startle
44	24	female	15	Probraum	1.5	22	1	phonemancaro	ex	black.PNG	60	0	0	0	0	03/25/22:15:19:12.155621	4921.812	0	0	opp	3	0.5	0	0	iti_startle
44	24	female	15	Probraum	1.5	22	1	phonemancaro	ex	black.PNG	60	0	0	0	0	03/25/22:15:19:12.172576	4921.828	0	0	opp	3	0.5	0	0	iti_startle
44	24	female	15	Probraum	1.5	22	1	phonemancaro	ex	black.PNG	60	0	0	0	0	03/25/22:15:19:12.189530	4921.843	0	0	opp	3	0.5	0	0	iti_startle
44	24	female	15	Probraum	1.5	22	1	phonemancaro	ex	black.PNG	60	0	0	0	0	03/25/22:15:19:12.205488	4921.859	0	0	opp	3	0.5	0	0	iti_startle
44	24	female	15	Probraum	1.5	22	1	phonemancaro	ex	black.PNG	60	0	0	0	0	03/25/22:15:19:12.222442	4921.875	0	0	opp	3	0.5	0	0	iti_startle
44	24	female	15	Probraum	1.5	22	1	phonemancaro	ex	black.PNG	60	0	0	0	0	03/25/22:15:19:12.239397	4921.89	0	0	opp	3	0.5	0	0	iti_startle
44	24	female	15	Probraum	1.5	22	1	phonemancaro	ex	black.PNG	60	0	0	0	0	03/25/22:15:19:12.256352	4921.906	0	0	opp	3	0.5	0	0	iti_startle
44	24	female	15	Probraum	1.5	22	1	phonemancaro	ex	black.PNG	60	0	0	0	0	03/25/22:15:19:12.272309	4921.921	0	0	opp	3	0.5	0	0	iti_startle
44	24	female	15	Probraum	1.5	22	1	phonemancaro	ex	black.PNG	60	0	0	0	0	03/25/22:15:19:12.289264	4921.953	0	0	opp	3	0.5	0	0	iti_startle
44	24	female	15	Probraum	1.5	22	1	phonemancaro	ex	black.PNG	60	0	0	0	0	03/25/22:15:19:12.306220	4921.968	0	0	opp	3	0.5	0	0	iti_startle
44	24	female	15	Probraum	1.5	22	1	phonemancaro	ex	black.PNG	60	0	0	0	0	03/25/22:15:19:12.322176	4921.984	0	0	opp	3	0.5	0	0	iti_startle
44	24	female	15	Probraum	1.5	22	1	phonemancaro	ex	black.PNG	60	0	0	0	0	03/25/22:15:19:12.339130	4922.0	0	0	opp	3	0.5	0	0	iti_startle
44	24	female	15	Probraum	1.5	22	1	phonemancaro	ex	black.PNG	60	0	0	0	0	03/25/22:15:19:12.356084	4922.015	0	0	opp	3	0.5	0	0	iti_startle
44	24	female	15	Probraum	1.5	22	1	phonemancaro	ex	black.PNG	60	0	0	0	0	03/25/22:15:19:12.373039	4922.031	0	0	opp	3	0.5	0	0	iti_startle
44	24	female	15	Probraum	1.5	22	1	phonemancaro	ex	black.PNG	60	0	0	0	0	03/25/22:15:19:12.388997	4922.046	0	0	opp	3	0.5	0	0	iti_startle
44	24	female	15	Probraum	1.5	22	1	phonemancaro	ex	black.PNG	60	0	0	0	0	03/25/22:15:19:12.405951	4922.062	0	0	opp	3	0.5	0	0	iti_startle
44	24	female	15	Probraum	1.5	22	1	phonemancaro	ex	black.PNG	60	0	0	0	0	03/25/22:15:19:12.422906	4922.078	0	0	opp	3	0.5	0	0	iti_startle
44	24	female	15	Probraum	1.5	22	1	phonemancaro	ex	black.PNG	60	1	0	0	0	03/25/22:15:19:12.423904	4922.078	0	0	opp	3	0.5	0	0	iti_startle
44	24	female	15	Probraum	1.5	22	1	phonemancaro	ex	black.PNG	60	1	0	0	0	03/25/22:15:19:12.425899	4922.078	0.3345	0	click safe opponent reaction, RT	3	0.5	0	0	iti_startle
44	24	female	15	Probraum	1.5	22	1	phonemancaro	ex	black.PNG	60	1	0	0	0	03/25/22:15:19:13.441184	4923.093	0.3345	I	click safe opponent reaction, RT	3	0.5	0	0	iti_startle
44	24	female	15	Probraum	1.5	22	1	phonemancaro	ex	black.PNG	60	1	0	0	0	03/25/22:15:19:13.441184	4923.093	0.3345	I	click safe opponent reaction, RT	3	0.5	0	0	iti_startle
44	24	female	15	Probraum	1.5	22	1	controlguy	ex	yellow.PNG	60	0	0	0	0	03/25/22:15:19:20.559147	4930.218	0	0	onset	3	0.5	0	0	silence
44	24	female	15	Probraum	1.5	22	1	controlguy	ex	yellow.PNG	60	0	0	0	0	03/25/22:15:19:20.675835	4930.328	0	0	anticipation	3	0.5	0	0	silence
44	24	female	15	Probraum	1.5	22	1	controlguy	ex	yellow.PNG	60	0	0	0	0	03/25/22:15:19:20.789531	4930.453	0	0	anticipation	3	0.5	0	0	silence
44	24	female	15	Probraum	1.5	22	1	controlguy	ex	yellow.PNG	60	0	0	0	0	03/25/22:15:19:20.903228	4930.562	0	0	anticipation	3	0.5	0	0	silence
44	24	female	15	Probraum	1.5	22	1	controlguy	ex	yellow.PNG	60	0	0	0	0	03/25/22:15:19:21.015925	4930.671	0	0	anticipation	3	0.5	0	0	silence
44	24	female	15	Probraum	1.5	22	1	controlguy	ex	yellow.PNG	60	0	0	0	0	03/25/22:15:19:21.129621	4930.781	0	0	anticipation	3	0.5	0	0	silence
44	24	female	15	Probraum	1.5	22	1	controlguy	ex	yellow.PNG	60	0	0	0	0	03/25/22:15:19:21.243317	4930.906	0	0	anticipation	3	0.5	0	0	silence
44	24	female	15	Probraum	1.5	22	1	controlguy	ex	yellow.PNG	60	0	0	0	0	03/25/22:15:19:21.357013	4931.015	0	0	anticipation	3	0.5	0	0	silence
44	24	female	15	Probraum	1.5	22	1	controlguy	ex	yellow.PNG	60	0	0	0	0	03/25/22:15:19:21.469709	4931.125	0	0	anticipation	3	0.5	0	0	silence
44	24	female	15	Probraum	1.5	22	1	controlguy	ex	yellow.PNG	60	0	0	0	0	03/25/22:15:19:21.583407	4931.234	0	0	anticipation	3	0.5	0	0	silence
44	24	female	15	Probraum	1.5	22	1	controlguy	ex	yellow.PNG	60	0	0	0	0	03/25/22:15:19:21.698101	4931.359	0	0	anticipation	3	0.5	0	0	silence
44	24	female	15	Probraum	1.5	22	1	controlguy	ex	yellow.PNG	60	0	0	0	0	03/25/22:15:19:21.811811	4931.468	0	0	anticipation	3	0.5	0	0	silence
44	24	female	15	Probraum	1.5	22	1	controlguy	ex	yellow.PNG	60	0	0	0	0	03/25/22:15:19:21.928499	4931.578	0	0	anticipation	3	0.5	0	0	silence
44	24	female	15	Probraum	1.5	22	1	controlguy	ex	yellow.PNG	60	0	0	0	0	03/25/22:15:19:22.042197	4931.703	0	0	anticipation	3	0.5	0	0	silence
44	24	female	15	Probraum	1.5	22	1	controlguy	ex	yellow.PNG	60	0	0	0	0	03/25/22:15:19:22.167859	4931.828	0	0	anticipation	3	0.5	0	0	silence
44	24	female	15	Probraum	1.5	22	1	controlguy	ex	yellow.PNG	60	0	0	0	0	03/25/22:15:19:22.281555	4931.937	0	0	anticipation	3	0.5	0	0	silence
44	24	female	15	Probraum	1.5	22	1	controlguy	ex	yellow.PNG	60	0	0	0	0	03/25/22:15:19:22.395251	4932.046	0	0	anticipation	3	0.5	0	0	silence
44	24	female	15	Probraum	1.5	22	1	controlguy	ex	yellow.PNG	60	0	0	0	0	03/25/22:15:19:22.507950	4932.171	0	0	anticipation	3	0.5	0	0	silence
44	24	female	15	Probraum	1.5	22	1	controlguy	ex	yellow.PNG	60	0	0	0	0	03/25/22:15:19:22.620649	4932.281	0	0	anticipation	3	0.5	0	0	silence
44	24	female	15	Probraum	1.5	22	1	controlguy	ex	yellow.PNG	60	0	0	0	0	03/25/22:15:19:22.734344	4932.39	0	0	anticipation	3	0.5	0	0	silence
44	24	female	15	Probraum	1.5	22	1	controlguy	ex	yellow.PNG	60	0	0	0	0	03/25/22:15:19:22.848040	4932.5	0	0	anticipation	3	0.5	0	0	silence
44	24	female	15	Probraum	1.5	22	1	controlguy	ex	yellow.PNG	60	0	0	0	0	03/25/22:15:19:22.961736	4932.625	0	0	anticipation	3	0.5	0	0	silence
44	24	female	15	Probraum	1.5	22	1	controlguy	ex	yellow.PNG	60	0	0	0	0	03/25/22:15:19:23.076429	4932.734	0	0	anticipation	3	0.5	0	0	silence
44	24	female	15	Probraum	1.5	22	1	controlguy	ex	yellow.PNG	60	0	0	0	0	03/25/22:15:19:23.189127	4932.843	0	0	anticipation	3	0.5	0	0	silence
44	24	female	15	Probraum	1.5	22	1	controlguy	ex	yellow.PNG	60	0	0	0	0	03/25/22:15:19:23.302824	4932.953	0	0	anticipation	3	0.5	0	0	silence
44	24	female	15	Probraum	1.5	22	1	controlguy	ex	yellow.PNG	60	0	0	0	0	03/25/22:15:19:23.417517	4933.078	0	0	anticipation	3	0.5	0	0	silence
44	24	female	15	Probraum	1.5	22	1	controlguy	ex	yellow.PNG	60	0	0	0	0	03/25/22:15:19:23.530215	4933.187	0	0	anticipation	3	0.5	0	0	silence
44	24	female	15	Probraum	1.5	22	1	controlguy	ex	yellow.PNG	60	0	0	0	0	03/25/22:15:19:23.643912	4933.296	0	0	anticipation	3	0.5	0	0	silence
44	24	female	15	Probraum	1.5	22	1	controlguy	ex	yellow.PNG	60	0	0	0	0	03/25/22:15:19:23.756610	4933.406	0	0	anticipation	3	0.5	0	0	silence
44	24	female	15	Probraum	1.5	22	1	controlguy	ex	yellow.PNG	60	0	0	0	0	03/25/22:15:19:23.869309	4933.531	0	0	anticipation	3	0.5	0	0	silence
44	24	female	15	Probraum	1.5	22	1	controlguy	ex	yellow.PNG	60	0	0	0	0	03/25/22:15:19:23.983005	4933.64	0	0	anticipation	3	0.5	0	0	silence
44	24	female	15	Probraum	1.5	22	1	controlguy	ex	yellow.PNG	60	0	0	0	0	03/25/22:15:19:24.095703	4933.75	0	0	anticipation	3	0.5	0	0	silence
44	24	female	15	Probraum	1.5	22	1	controlguy	ex	yellow.PNG	60	0	0	0	0	03/25/22:15:19:24.208402	4933.859	0	0	anticipation	3	0.5	0	0	silence
44	24	female	15	Probraum	1.5	22	1	controlguy	ex	yellow.PNG	60	0	0	0	0	03/25/22:15:19:24.321101	4933.984	0	0	anticipation	3	0.5	0	0	silence
44	24	female	15	Probraum	1.5	22	1	controlguy	ex	yellow.PNG	60	0	0	0	0	03/25/22:15:19:24.433799	4934.093	0	0	anticipation	3	0.5	0	0	silence
44	24	female	15	Probraum	1.5	22	1	controlguy	ex	yellow.PNG	60	0	0	0	0	03/25/22:15:19:24.543506	4934.203	0	0	anticipation	3	0.5	0	0	silence
44	24	female	15	Probraum	1.5	22	1	controlguy	ex	yellow.PNG	60	0	0	0	0	03/25/22:15:19:24.657202	4934.312	0	0	anticipation	3	0.5	0	0	silence
44	24	female	15	Probraum	1.5	22	1	controlguy	ex	yellow.PNG	60	0	0	0	0	03/25/22:15:19:24.770898	4934.421	0	0	anticipation	3	0.5	0	0	silence
44	24	female	15	Probraum	1.5	22	1	controlguy	ex	yellow.PNG	60	0	0	0	0	03/25/22:15:19:24.884593	4934.546	0	0	anticipation	3	0.5	0	0	silence
44	24	female	15	Probraum	1.5	22	1	controlguy	ex	yellow.PNG	60	0	0	0	0	03/25/22:15:19:24.996295	4934.656	0	0	anticipation	3	0.5	0	0	silence
44	24	female	15	Probraum	1.5	22	1	controlguy	ex	yellow.PNG	60	0	0	0	0	03/25/22:15:19:25.109991	4934.765	0	0	anticipation	3	0.5	0	0	silence
44	24	female	15	Probraum	1.5	22	1	controlguy	ex	yellow.PNG	60	0	0	0	0	03/25/22:15:19:25.223686	4934.875	0	0	anticipation	3	0.5	0	0	silence
44	24	female	15	Probraum	1.5	22	1	controlguy	ex	yellow.PNG	60	0	0	0	0	03/25/22:15:19:25.336385	4935.0	0	0	anticipation	3	0.5	0	0	silence
44	24	female	15	Probraum	1.5	22	1	controlguy	ex	yellow.PNG	60	0	0	0	0	03/25/22:15:19:25.450081	4935.109	0	0	anticipation	3	0.5	0	0	silence
44	24	female	15	Probraum	1.5	22	1	controlguy	ex	yellow.PNG	60	0	0	0	0	03/25/22:15:19:25.562779	4935.218	0	0	anticipation	3	0.5	0	0	silence
44	24	female	15	Probraum	1.5	22	1	controlguy	ex	yellow.PNG	60	0	0	0	0	03/25/22:15:19:25.675478	4935.328	0	0	anticipation	3	0.5	0	0	silence
44	24	female	15	Probraum	1.5	22	1	controlguy	ex	yellow.PNG	60	0	0	0	0	03/25/22:15:19:25.789174	4935.453	0	0	anticipation	3	0.5	0	0	silence
44	24	female	15	Probraum	1.5	22	1	controlguy	ex	yellow.PNG	60	0	0	0	0	03/25/22:15:19:25.901872	4935.562	0	0	anticipation	3	0.5	0	0	silence
44	24	female	15	Probraum	1.5	22	1	controlguy	ex	yellow.PNG	60	0	0	0	0	03/25/22:15:19:26.014571	4935.671	0	0	anticipation	3	0.5	0	0	silence
44	24	female	15	Probraum	1.5	22	1	controlguy	ex	yellow.PNG	60	0	0	0	0	03/25/22:15:19:26.128267	4935.781	0	0	anticipation	3	0.5	0	0	silence
44	24	female	15	Probraum	1.5	22	1	controlguy	ex	yellow.PNG	60	0	0	0	0	03/25/22:15:19:26.241963	4935.906	0	0	anticipation	3	0.5	0	0	silence
44	24	female	15	Probraum	1.5	22	1	controlguy	ex	yellow.PNG	60	0	0	0	0	03/25/22:15:19:26.355659	4936.015	0	0	anticipation	3	0.5	0	0	silence
44	24	female	15	Probraum	1.5	22	1	controlguy	ex	yellow.PNG	60	0	0	0	0	03/25/22:15:19:26.467360	4936.125	0	0	anticipation	3	0.5	0	0	silence
44	24	female	15	Probraum	1.5	22	1	controlguy	ex	yellow.PNG	60	0	0	0	0	03/25/22:15:19:26.581056	4936.234	0	0	anticipation	3	0.5	0	0	silence
44	24	female	15	Probraum	1.5	22	1	controlguy	ex	yellow.PNG	60	0	0	0	0	03/25/22:15:19:26.693755	4936.343	0	0	anticipation	3	0.5	0	0	silence
44	24	female	15	Probraum	1.5	22	1	controlguy	ex	yellow.PNG	60	0	0	0	0	03/25/22:15:19:26.705723	4936.359	0	0	guy	3	0.5	0	0	silence
44	24	female	15	Probraum	1.5	22	1	controlguy	ex	yellow.PNG	60	0	0	0	0	03/25/22:15:19:26.721680	4936.375	0	0	guy	3	0.5	0	0	silence
44	24	female	15	Probraum	1.5	22	1	controlguy	ex	yellow.PNG	60	0	0	0	0	03/25/22:15:19:26.738636	4936.39	0	0	guy	3	0.5	0	0	silence
44	24	female	15	Probraum	1.5	22	1	controlguy	ex	yellow.PNG	60	0	0	0	0	03/25/22:15:19:26.755590	4936.406	0	0	guy	3	0.5	0	0	silence
44	24	female	15	Probraum	1.5	22	1	controlguy	ex	yellow.PNG	60	0	0	0	0	03/25/22:15:19:26.771547	4936.421	0	0	guy	3	0.5	0	0	silence
44	24	female	15	Probraum	1.5	22	1	controlguy	ex	yellow.PNG	60	0	0	0	0	03/25/22:15:19:26.788501	4936.453	0	0	guy	3	0.5	0	0	silence
44	24	female	15	Probraum	1.5	22	1	controlguy	ex	yellow.PNG	60	0	0	0	0	03/25/22:15:19:26.806453	4936.468	0	0	guy	3	0.5	0	0	silence
44	24	female	15	Probraum	1.5	22	1	controlguy	ex	yellow.PNG	60	0	0	0	0	03/25/22:15:19:26.822411	4936.484	0	0	guy	3	0.5	0	0	silence
44	24	female	15	Probraum	1.5	22	1	controlguy	ex	yellow.PNG	60	0	0	0	0	03/25/22:15:19:26.839367	4936.5	0	0	guy	3	0.5	0	0	silence
44	24	female	15	Probraum	1.5	22	1	controlguy	ex	yellow.PNG	60	0	0	0	0	03/25/22:15:19:26.856320	4936.515	0	0	guy	3	0.5	0	0	silence
44	24	female	15	Probraum	1.5	22	1	controlguy	ex	yellow.PNG	60	0	0	0	0	03/25/22:15:19:26.872277	4936.531	0	0	guy	3	0.5	0	0	silence
44	24	female	15	Probraum	1.5	22	1	controlguy	ex	yellow.PNG	60	0	0	0	0	03/25/22:15:19:26.889232	4936.546	0	0	guy	3	0.5	0	0	silence
44	24	female	15	Probraum	1.5	22	1	controlguy	ex	yellow.PNG	60	0	0	0	0	03/25/22:15:19:26.906187	4936.562	0	0	guy	3	0.5	0	0	silence
44	24	female	15	Probraum	1.5	22	1	controlguy	ex	yellow.PNG	60	0	0	0	0	03/25/22:15:19:26.923141	4936.578	0	0	guy	3	0.5	0	0	silence
44	24	female	15	Probraum	1.5	22	1	controlguy	ex	yellow.PNG	60	0	0	0	0	03/25/22:15:19:26.939099	4936.593	0	0	guy	3	0.5	0	0	silence
44	24	female	15	Probraum	1.5	22	1	controlguy	ex	yellow.PNG	60	0	0	0	0	03/25/22:15:19:26.957051	4936.609	0	0	guy	3	0.5	0	0	silence
44	24	female	15	Probraum	1.5	22	1	controlguy	ex	yellow.PNG	60	0	0	0	0	03/25/22:15:19:26.979990	4936.64	0	0	guy	3	0.5	0	0	silence
44	24	female	15	Probraum	1.5	22	1	controlguy	ex	yellow.PNG	60	0	0	0	0	03/25/22:15:19:26.988965	4936.64	0	0	guy	3	0.5	0	0	silence
44	24	female	15	Probraum	1.5	22	1	controlguy	ex	yellow.PNG	60	0	0	0	0	03/25/22:15:19:27.005920	4936.656	0	0	guy	3	0.5	0	0	silence
44	24	female	15	Probraum	1.5	22	1	controlguy	ex	yellow.PNG	60	0	0	0	0	03/25/22:15:19:27.021877	4936.671	0	0	guy	3	0.5	0	0	silence
44	24	female	15	Probraum	1.5	22	1	controlguy	ex	yellow.PNG	60	0	0	0	0	03/25/22:15:19:27.038832	4936.703	0	0	guy	3	0.5	0	0	silence
44	24	female	15	Probraum	1.5	22	1	controlguy	ex	yellow.PNG	60	0	0	0	0	03/25/22:15:19:27.055787	4936.718	0	0	guy	3	0.5	0	0	silence
44	24	female	15	Probraum	1.5	22	1	controlguy	ex	yellow.PNG	60	0	0	0	0	03/25/22:15:19:27.072739	4936.734	0	0	guy	3	0.5	0	0	silence
44	24	female	15	Probraum	1.5	22	1	controlguy	ex	yellow.PNG	60	0	0	0	0	03/25/22:15:19:27.089695	4936.75	0	0	guy	3	0.5	0	0	silence
44	24	female	15	Probraum	1.5	22	1	controlguy	ex	yellow.PNG	60	0	0	0	0	03/25/22:15:19:27.105653	4936.765	0	0	guy	3	0.5	0	0	silence
44	24	female	15	Probraum	1.5	22	1	controlguy	ex	yellow.PNG	60	0	0	0	0	03/25/22:15:19:27.122607	4936.781	0	0	guy	3	0.5	0	0	silence
44	24	female	15	Probraum	1.5	22	1	controlguy	ex	yellow.PNG	60	0	0	0	0	03/25/22:15:19:27.139563	4936.796	0	0	guy	3	0.5	0	0	silence
44	24	female	15	Probraum	1.5	22	1	controlguy	ex	yellow.PNG	60	0	0	0	0	03/25/22:15:19:27.156517	4936.812	0	0	guy	3	0.5	0	0	silence
44	24	female	15	Probraum	1.5	22	1	controlguy	ex	yellow.PNG	60	0	0	0	0	03/25/22:15:19:27.173472	4936.828	0	0	guy	3	0.5	0	0	silence
44	24	female	15	Probraum	1.5	22	1	controlguy	ex	yellow.PNG	60	0	0	0	0	03/25/22:15:19:27.189429	4936.843	0	0	guy	3	0.5	0	0	silence
44	24	female	15	Probraum	1.5	22	1	controlguy	ex	yellow.PNG	60	0	0	0	0	03/25/22:15:19:27.206384	4936.859	0	0	guy	3	0.5	0	0	silence
44	24	female	15	Probraum	1.5	22	1	controlguy	ex	yellow.PNG	60	0	0	0	0	03/25/22:15:19:27.222395	4936.875	0	0	guy	3	0.5	0	0	silence
44	24	female	15	Probraum	1.5	22	1	controlguy	ex	yellow.PNG	60	0	0	0	0	03/25/22:15:19:27.239350	4936.89	0	0	guy	3	0.5	0	0	silence
44	24	female	15	Probraum	1.5	22	1	controlguy	ex	yellow.PNG	60	0	0	0	0	03/25/22:15:19:27.256307	4936.906	0	0	guy	3	0.5	0	0	silence
44	24	female	15	Probraum	1.5	22	1	controlguy	ex	yellow.PNG	60	0	0	0	0	03/25/22:15:19:27.272264	4936.921	0	0	guy	3	0.5	0	0	silence
44	24	female	15	Probraum	1.5	22	1	controlguy	ex	yellow.PNG	60	0	0	0	0	03/25/22:15:19:27.289219	4936.953	0	0	guy	3	0.5	0	0	silence
44	24	female	15	Probraum	1.5	22	1	controlguy	ex	yellow.PNG	60	0	0	0	0	03/25/22:15:19:27.306174	4936.968	0	0	guy	3	0.5	0	0	silence
44	24	female	15	Probraum	1.5	22	1	controlguy	ex	yellow.PNG	60	0	0	0	0	03/25/22:15:19:27.323125	4936.984	0	0	guy	3	0.5	0	0	silence
44	24	female	15	Probraum	1.5	22	1	controlguy	ex	yellow.PNG	60	0	0	0	0	03/25/22:15:19:27.339086	4937.0	0	0	guy	3	0.5	0	0	silence
44	24	female	15	Probraum	1.5	22	1	controlguy	ex	yellow.PNG	60	0	0	0	0	03/25/22:15:19:27.356041	4937.015	0	0	guy	3	0.5	0	0	silence
44	24	female	15	Probraum	1.5	22	1	controlguy	ex	yellow.PNG	60	0	0	0	0	03/25/22:15:19:27.372995	4937.031	0	0	guy	3	0.5	0	0	silence
44	24	female	15	Probraum	1.5	22	1	controlguy	ex	yellow.PNG	60	0	0	0	0	03/25/22:15:19:27.389950	4937.046	0	0	guy	3	0.5	0	0	silence
44	24	female	15	Probraum	1.5	22	1	controlguy	ex	yellow.PNG	60	0	0	0	0	03/25/22:15:19:27.405907	4937.062	0	0	guy	3	0.5	0	0	silence
44	24	female	15	Probraum	1.5	22	1	controlguy	ex	yellow.PNG	60	0	0	0	0	03/25/22:15:19:27.422862	4937.078	0	0	guy	3	0.5	0	0	silence
44	24	female	15	Probraum	1.5	22	1	controlguy	ex	yellow.PNG	60	0	0	0	0	03/25/22:15:19:27.439816	4937.093	0	0	guy	3	0.5	0	0	silence
44	24	female	15	Probraum	1.5	22	1	controlguy	ex	yellow.PNG	60	0	0	0	0	03/25/22:15:19:27.455774	4937.109	0	0	guy	3	0.5	0	0	silence
44	24	female	15	Probraum	1.5	22	1	controlguy	ex	yellow.PNG	60	0	0	0	0	03/25/22:15:19:27.472728	4937.125	0	0	guy	3	0.5	0	0	silence
44	24	female	15	Probraum	1.5	22	1	controlguy	ex	yellow.PNG	60	0	0	0	0	03/25/22:15:19:27.489683	4937.14	0	0	guy	3	0.5	0	0	silence
44	24	female	15	Probraum	1.5	22	1	controlguy	ex	yellow.PNG	60	0	0	0	0	03/25/22:15:19:27.505641	4937.156	0	0	guy	3	0.5	0	0	silence
44	24	female	15	Probraum	1.5	22	1	controlguy	ex	yellow.PNG	60	0	0	0	0	03/25/22:15:19:27.522595	4937.171	0	0	guy	3	0.5	0	0	silence
44	24	female	15	Probraum	1.5	22	1	controlguy	ex	yellow.PNG	60	0	0	0	0	03/25/22:15:19:27.539550	4937.203	0	0	guy	3	0.5	0	0	silence
44	24	female	15	Probraum	1.5	22	1	controlguy	ex	yellow.PNG	60	0	0	0	0	03/25/22:15:19:27.555504	4937.218	0	0	guy	3	0.5	0	0	silence
44	24	female	15	Probraum	1.5	22	1	controlguy	ex	yellow.PNG	60	0	0	0	0	03/25/22:15:19:27.572459	4937.234	0	0	guy	3	0.5	0	0	silence
44	24	female	15	Probraum	1.5	22	1	controlguy	ex	yellow.PNG	60	0	0	0	0	03/25/22:15:19:27.589414	4937.25	0	0	guy	3	0.5	0	0	silence
44	24	female	15	Probraum	1.5	22	1	controlguy	ex	yellow.PNG	60	0	0	0	0	03/25/22:15:19:27.605372	4937.265	0	0	guy	3	0.5	0	0	silence
44	24	female	15	Probraum	1.5	22	1	controlguy	ex	yellow.PNG	60	0	0	0	0	03/25/22:15:19:27.622328	4937.281	0	0	opp	3	0.5	0	0	silence
44	24	female	15	Probraum	1.5	22	1	controlguy	ex	yellow.PNG	60	0	0	0	0	03/25/22:15:19:27.639280	4937.296	0	0	opp	3	0.5	0	0	silence
44	24	female	15	Probraum	1.5	22	1	controlguy	ex	yellow.PNG	60	0	0	0	0	03/25/22:15:19:27.656237	4937.312	0	0	opp	3	0.5	0	0	silence
44	24	female	15	Probraum	1.5	22	1	controlguy	ex	yellow.PNG	60	0	0	0	0	03/25/22:15:19:27.673193	4937.328	0	0	opp	3	0.5	0	0	silence
44	24	female	15	Probraum	1.5	22	1	controlguy	ex	yellow.PNG	60	0	0	0	0	03/25/22:15:19:27.689150	4937.343	0	0	opp	3	0.5	0	0	silence
44	24	female	15	Probraum	1.5	22	1	controlguy	ex	yellow.PNG	60	0	0	0	0	03/25/22:15:19:27.706102	4937.359	0	0	opp	3	0.5	0	0	silence
44	24	female	15	Probraum	1.5	22	1	controlguy	ex	yellow.PNG	60	0	0	0	0	03/25/22:15:19:27.723058	4937.375	0	0	opp	3	0.5	0	0	silence
44	24	female	15	Probraum	1.5	22	1	controlguy	ex	yellow.PNG	60	0	0	0	0	03/25/22:15:19:27.739014	4937.39	0	0	opp	3	0.5	0	0	silence
44	24	female	15	Probraum	1.5	22	1	controlguy	ex	yellow.PNG	60	0	0	0	0	03/25/22:15:19:27.755971	4937.406	0	0	opp	3	0.5	0	0	silence
44	24	female	15	Probraum	1.5	22	1	controlguy	ex	yellow.PNG	60	0	0	0	0	03/25/22:15:19:27.772923	4937.437	0	0	opp	3	0.5	0	0	silence
44	24	female	15	Probraum	1.5	22	1	controlguy	ex	yellow.PNG	60	0	0	0	0	03/25/22:15:19:27.789877	4937.453	0	0	opp	3	0.5	0	0	silence
44	24	female	15	Probraum	1.5	22	1	controlguy	ex	yellow.PNG	60	0	0	0	0	03/25/22:15:19:27.805836	4937.468	0	0	opp	3	0.5	0	0	silence
44	24	female	15	Probraum	1.5	22	1	controlguy	ex	yellow.PNG	60	0	0	0	0	03/25/22:15:19:27.822789	4937.484	0	0	opp	3	0.5	0	0	silence
44	24	female	15	Probraum	1.5	22	1	controlguy	ex	yellow.PNG	60	0	0	0	0	03/25/22:15:19:27.839746	4937.5	0	0	opp	3	0.5	0	0	silence
44	24	female	15	Probraum	1.5	22	1	controlguy	ex	yellow.PNG	60	0	0	0	0	03/25/22:15:19:27.855705	4937.515	0	0	opp	3	0.5	0	0	silence
44	24	female	15	Probraum	1.5	22	1	controlguy	ex	yellow.PNG	60	0	0	0	0	03/25/22:15:19:27.872667	4937.531	0	0	opp	3	0.5	0	0	silence
44	24	female	15	Probraum	1.5	22	1	controlguy	ex	yellow.PNG	60	0	0	0	0	03/25/22:15:19:27.889620	4937.546	0	0	opp	3	0.5	0	0	silence
44	24	female	15	Probraum	1.5	22	1	controlguy	ex	yellow.PNG	60	0	0	0	0	03/25/22:15:19:27.906575	4937.562	0	0	opp	3	0.5	0	0	silence
44	24	female	15	Probraum	1.5	22	1	controlguy	ex	yellow.PNG	60	0	0	0	0	03/25/22:15:19:27.922533	4937.578	0	0	opp	3	0.5	0	0	silence
44	24	female	15	Probraum	1.5	22	1	controlguy	ex	yellow.PNG	60	0	0	0	0	03/25/22:15:19:27.939488	4937.593	0	0	opp	3	0.5	0	0	silence
44	24	female	15	Probraum	1.5	22	1	controlguy	ex	yellow.PNG	60	0	0	0	0	03/25/22:15:19:27.956439	4937.609	0	0	opp	3	0.5	0	0	silence
44	24	female	15	Probraum	1.5	22	1	controlguy	ex	yellow.PNG	60	0	0	0	0	03/25/22:15:19:27.972396	4937.625	0	0	opp	3	0.5	0	0	silence
44	24	female	15	Probraum	1.5	22	1	controlguy	ex	yellow.PNG	60	0	0	0	0	03/25/22:15:19:27.989352	4937.64	0	0	opp	3	0.5	0	0	silence
44	24	female	15	Probraum	1.5	22	1	controlguy	ex	yellow.PNG	60	0	0	0	0	03/25/22:15:19:28.006307	4937.656	0	0	opp	3	0.5	0	0	silence
44	24	female	15	Probraum	1.5	22	1	controlguy	ex	yellow.PNG	60	0	0	0	0	03/25/22:15:19:28.023263	4937.687	0	0	opp	3	0.5	0	0	silence
44	24	female	15	Probraum	1.5	22	1	controlguy	ex	yellow.PNG	60	0	0	0	0	03/25/22:15:19:28.039221	4937.703	0	0	opp	3	0.5	0	0	silence
44	24	female	15	Probraum	1.5	22	1	controlguy	ex	yellow.PNG	60	0	0	0	0	03/25/22:15:19:28.056176	4937.718	0	0	opp	3	0.5	0	0	silence
44	24	female	15	Probraum	1.5	22	1	controlguy	ex	yellow.PNG	60	0	0	0	0	03/25/22:15:19:28.073129	4937.734	0	0	opp	3	0.5	0	0	silence
44	24	female	15	Probraum	1.5	22	1	controlguy	ex	yellow.PNG	60	0	0	0	0	03/25/22:15:19:28.089087	4937.75	0	0	opp	3	0.5	0	0	silence
44	24	female	15	Probraum	1.5	22	1	controlguy	ex	yellow.PNG	60	0	0	0	0	03/25/22:15:19:28.106039	4937.765	0	0	opp	3	0.5	0	0	silence
44	24	female	15	Probraum	1.5	22	1	controlguy	ex	yellow.PNG	60	1	0	0	0	03/25/22:15:19:28.483033	4938.14	0	0	follow up	3	0.5	0	0	silence
44	24	female	15	Probraum	1.5	22	1	controlguy	ex	yellow.PNG	60	1	0	0	0	03/25/22:15:19:29.487462	4939.14	1.8796	I	follow up	3	0.5	0	0	silence
44	24	female	15	Probraum	1.5	22	1	gunmanbw	ex	black.PNG	60	0	0	0	0	03/25/22:15:19:32.591276	4942.25	0	0	onset	3	0.5	0	0	iti_startle
44	24	female	15	Probraum	1.5	22	1	gunmanbw	ex	black.PNG	60	0	0	0	0	03/25/22:15:19:32.706967	4942.359	0	0	anticipation	3	0.5	0	0	iti_startle
44	24	female	15	Probraum	1.5	22	1	gunmanbw	ex	black.PNG	60	0	0	0	0	03/25/22:15:19:32.820663	4942.484	0	0	anticipation	3	0.5	0	0	iti_startle
44	24	female	15	Probraum	1.5	22	1	gunmanbw	ex	black.PNG	60	0	0	0	0	03/25/22:15:19:32.935356	4942.593	0	0	anticipation	3	0.5	0	0	iti_startle
44	24	female	15	Probraum	1.5	22	1	gunmanbw	ex	black.PNG	60	0	0	0	0	03/25/22:15:19:33.047057	4942.703	0	0	anticipation	3	0.5	0	0	iti_startle
44	24	female	15	Probraum	1.5	22	1	gunmanbw	ex	black.PNG	60	0	0	0	0	03/25/22:15:19:33.159756	4942.812	0	0	anticipation	3	0.5	0	0	iti_startle
44	24	female	15	Probraum	1.5	22	1	gunmanbw	ex	black.PNG	60	0	0	0	0	03/25/22:15:19:33.272455	4942.921	0	0	anticipation	3	0.5	0	0	iti_startle
44	24	female	15	Probraum	1.5	22	1	gunmanbw	ex	black.PNG	60	0	0	0	0	03/25/22:15:19:33.385154	4943.046	0	0	anticipation	3	0.5	0	0	iti_startle
44	24	female	15	Probraum	1.5	22	1	gunmanbw	ex	black.PNG	60	0	0	0	0	03/25/22:15:19:33.519793	4943.171	0	0	anticipation	3	0.5	0	0	iti_startle
44	24	female	15	Probraum	1.5	22	1	gunmanbw	ex	black.PNG	60	0	0	0	0	03/25/22:15:19:33.631495	4943.281	0	0	anticipation	3	0.5	0	0	iti_startle
44	24	female	15	Probraum	1.5	22	1	gunmanbw	ex	black.PNG	60	0	0	0	0	03/25/22:15:19:33.743196	4943.406	0	0	anticipation	3	0.5	0	0	iti_startle
44	24	female	15	Probraum	1.5	22	1	gunmanbw	ex	black.PNG	60	0	0	0	0	03/25/22:15:19:33.855902	4943.515	0	0	anticipation	3	0.5	0	0	iti_startle
44	24	female	15	Probraum	1.5	22	1	gunmanbw	ex	black.PNG	60	0	0	0	0	03/25/22:15:19:33.993533	4943.656	0	0	anticipation	3	0.5	0	0	iti_startle
44	24	female	15	Probraum	1.5	22	1	gunmanbw	ex	black.PNG	60	0	0	0	0	03/25/22:15:19:34.107230	4943.765	0	0	anticipation	3	0.5	0	0	iti_startle
44	24	female	15	Probraum	1.5	22	1	gunmanbw	ex	black.PNG	60	0	0	0	0	03/25/22:15:19:34.243865	4943.906	0	0	anticipation	3	0.5	0	0	iti_startle
44	24	female	15	Probraum	1.5	22	1	gunmanbw	ex	black.PNG	60	0	0	0	0	03/25/22:15:19:34.355566	4944.015	0	0	anticipation	3	0.5	0	0	iti_startle
44	24	female	15	Probraum	1.5	22	1	gunmanbw	ex	black.PNG	60	0	0	0	0	03/25/22:15:19:34.466270	4944.125	0	0	anticipation	3	0.5	0	0	iti_startle
44	24	female	15	Probraum	1.5	22	1	gunmanbw	ex	black.PNG	60	0	0	0	0	03/25/22:15:19:34.577971	4944.234	0	0	anticipation	3	0.5	0	0	iti_startle
44	24	female	15	Probraum	1.5	22	1	gunmanbw	ex	black.PNG	60	0	0	0	0	03/25/22:15:19:34.689672	4944.343	0	0	anticipation	3	0.5	0	0	iti_startle
44	24	female	15	Probraum	1.5	22	1	gunmanbw	ex	black.PNG	60	0	0	0	0	03/25/22:15:19:34.801374	4944.453	0	0	anticipation	3	0.5	0	0	iti_startle
44	24	female	15	Probraum	1.5	22	1	gunmanbw	ex	black.PNG	60	0	0	0	0	03/25/22:15:19:34.913074	4944.562	0	0	anticipation	3	0.5	0	0	iti_startle
44	24	female	15	Probraum	1.5	22	1	gunmanbw	ex	black.PNG	60	0	0	0	0	03/25/22:15:19:35.025773	4944.687	0	0	anticipation	3	0.5	0	0	iti_startle
44	24	female	15	Probraum	1.5	22	1	gunmanbw	ex	black.PNG	60	0	0	0	0	03/25/22:15:19:35.137475	4944.796	0	0	anticipation	3	0.5	0	0	iti_startle
44	24	female	15	Probraum	1.5	22	1	gunmanbw	ex	black.PNG	60	0	0	0	0	03/25/22:15:19:35.250173	4944.906	0	0	anticipation	3	0.5	0	0	iti_startle
44	24	female	15	Probraum	1.5	22	1	gunmanbw	ex	black.PNG	60	0	0	0	0	03/25/22:15:19:35.362872	4945.015	0	0	anticipation	3	0.5	0	0	iti_startle
44	24	female	15	Probraum	1.5	22	1	gunmanbw	ex	black.PNG	60	0	0	0	0	03/25/22:15:19:35.473576	4945.125	0	0	anticipation	3	0.5	0	0	iti_startle
44	24	female	15	Probraum	1.5	22	1	gunmanbw	ex	black.PNG	60	0	0	0	0	03/25/22:15:19:35.586275	4945.25	0	0	anticipation	3	0.5	0	0	iti_startle
44	24	female	15	Probraum	1.5	22	1	gunmanbw	ex	black.PNG	60	0	0	0	0	03/25/22:15:19:35.697976	4945.359	0	0	anticipation	3	0.5	0	0	iti_startle
44	24	female	15	Probraum	1.5	22	1	gunmanbw	ex	black.PNG	60	0	0	0	0	03/25/22:15:19:35.809677	4945.468	0	0	anticipation	3	0.5	0	0	iti_startle
44	24	female	15	Probraum	1.5	22	1	gunmanbw	ex	black.PNG	60	0	0	0	0	03/25/22:15:19:35.921378	4945.578	0	0	anticipation	3	0.5	0	0	iti_startle
44	24	female	15	Probraum	1.5	22	1	gunmanbw	ex	black.PNG	60	0	0	0	0	03/25/22:15:19:36.034077	4945.687	0	0	anticipation	3	0.5	0	0	iti_startle
44	24	female	15	Probraum	1.5	22	1	gunmanbw	ex	black.PNG	60	0	0	0	0	03/25/22:15:19:36.144781	4945.796	0	0	anticipation	3	0.5	0	0	iti_startle
44	24	female	15	Probraum	1.5	22	1	gunmanbw	ex	black.PNG	60	0	0	0	0	03/25/22:15:19:36.257479	4945.921	0	0	anticipation	3	0.5	0	0	iti_startle
44	24	female	15	Probraum	1.5	22	1	gunmanbw	ex	black.PNG	60	0	0	0	0	03/25/22:15:19:36.370178	4946.031	0	0	anticipation	3	0.5	0	0	iti_startle
44	24	female	15	Probraum	1.5	22	1	gunmanbw	ex	black.PNG	60	0	0	0	0	03/25/22:15:19:36.479883	4946.14	0	0	anticipation	3	0.5	0	0	iti_startle
44	24	female	15	Probraum	1.5	22	1	gunmanbw	ex	black.PNG	60	0	0	0	0	03/25/22:15:19:36.592583	4946.25	0	0	anticipation	3	0.5	0	0	iti_startle
44	24	female	15	Probraum	1.5	22	1	gunmanbw	ex	black.PNG	60	0	0	0	0	03/25/22:15:19:36.706278	4946.359	0	0	anticipation	3	0.5	0	0	iti_startle
44	24	female	15	Probraum	1.5	22	1	gunmanbw	ex	black.PNG	60	0	0	0	0	03/25/22:15:19:36.818978	4946.468	0	0	anticipation	3	0.5	0	0	iti_startle
44	24	female	15	Probraum	1.5	22	1	gunmanbw	ex	black.PNG	60	0	0	0	0	03/25/22:15:19:36.931676	4946.593	0	0	anticipation	3	0.5	0	0	iti_startle
44	24	female	15	Probraum	1.5	22	1	gunmanbw	ex	black.PNG	60	0	0	0	0	03/25/22:15:19:37.044375	4946.703	0	0	anticipation	3	0.5	0	0	iti_startle
44	24	female	15	Probraum	1.5	22	1	gunmanbw	ex	black.PNG	60	0	0	0	0	03/25/22:15:19:37.158070	4946.812	0	0	anticipation	3	0.5	0	0	iti_startle
44	24	female	15	Probraum	1.5	22	1	gunmanbw	ex	black.PNG	60	0	0	0	0	03/25/22:15:19:37.271767	4946.921	0	0	anticipation	3	0.5	0	0	iti_startle
44	24	female	15	Probraum	1.5	22	1	gunmanbw	ex	black.PNG	60	0	0	0	0	03/25/22:15:19:37.384465	4947.046	0	0	anticipation	3	0.5	0	0	iti_startle
44	24	female	15	Probraum	1.5	22	1	gunmanbw	ex	black.PNG	60	0	0	0	0	03/25/22:15:19:37.497164	4947.156	0	0	anticipation	3	0.5	0	0	iti_startle
44	24	female	15	Probraum	1.5	22	1	gunmanbw	ex	black.PNG	60	0	0	0	0	03/25/22:15:19:37.608865	4947.265	0	0	anticipation	3	0.5	0	0	iti_startle
44	24	female	15	Probraum	1.5	22	1	gunmanbw	ex	black.PNG	60	0	0	0	0	03/25/22:15:19:37.720567	4947.375	0	0	anticipation	3	0.5	0	0	iti_startle
44	24	female	15	Probraum	1.5	22	1	gunmanbw	ex	black.PNG	60	0	0	0	0	03/25/22:15:19:37.833264	4947.484	0	0	anticipation	3	0.5	0	0	iti_startle
44	24	female	15	Probraum	1.5	22	1	gunmanbw	ex	black.PNG	60	0	0	0	0	03/25/22:15:19:37.943968	4947.593	0	0	anticipation	3	0.5	0	0	iti_startle
44	24	female	15	Probraum	1.5	22	1	gunmanbw	ex	black.PNG	60	0	0	0	0	03/25/22:15:19:38.055669	4947.718	0	0	anticipation	3	0.5	0	0	iti_startle
44	24	female	15	Probraum	1.5	22	1	gunmanbw	ex	black.PNG	60	0	0	0	0	03/25/22:15:19:38.168368	4947.828	0	0	anticipation	3	0.5	0	0	iti_startle
44	24	female	15	Probraum	1.5	22	1	gunmanbw	ex	black.PNG	60	0	0	0	0	03/25/22:15:19:38.280070	4947.937	0	0	anticipation	3	0.5	0	0	iti_startle
44	24	female	15	Probraum	1.5	22	1	gunmanbw	ex	black.PNG	60	0	0	0	0	03/25/22:15:19:38.391771	4948.046	0	0	anticipation	3	0.5	0	0	iti_startle
44	24	female	15	Probraum	1.5	22	1	gunmanbw	ex	black.PNG	60	0	0	0	0	03/25/22:15:19:38.502476	4948.156	0	0	anticipation	3	0.5	0	0	iti_startle
44	24	female	15	Probraum	1.5	22	1	gunmanbw	ex	black.PNG	60	0	0	0	0	03/25/22:15:19:38.614176	4948.265	0	0	anticipation	3	0.5	0	0	iti_startle
44	24	female	15	Probraum	1.5	22	1	gunmanbw	ex	black.PNG	60	0	0	0	0	03/25/22:15:19:38.725878	4948.375	0	0	anticipation	3	0.5	0	0	iti_startle
44	24	female	15	Probraum	1.5	22	1	gunmanbw	ex	black.PNG	60	0	0	0	0	03/25/22:15:19:38.738843	4948.39	0	0	guy	3	0.5	0	0	iti_startle
44	24	female	15	Probraum	1.5	22	1	gunmanbw	ex	black.PNG	60	0	0	0	0	03/25/22:15:19:38.755797	4948.406	0	0	guy	3	0.5	0	0	iti_startle
44	24	female	15	Probraum	1.5	22	1	gunmanbw	ex	black.PNG	60	0	0	0	0	03/25/22:15:19:38.772752	4948.421	0	0	guy	3	0.5	0	0	iti_startle
44	24	female	15	Probraum	1.5	22	1	gunmanbw	ex	black.PNG	60	0	0	0	0	03/25/22:15:19:38.788709	4948.453	0	0	guy	3	0.5	0	0	iti_startle
44	24	female	15	Probraum	1.5	22	1	gunmanbw	ex	black.PNG	60	0	0	0	0	03/25/22:15:19:38.805664	4948.468	0	0	guy	3	0.5	0	0	iti_startle
44	24	female	15	Probraum	1.5	22	1	gunmanbw	ex	black.PNG	60	0	0	0	0	03/25/22:15:19:38.822619	4948.484	0	0	guy	3	0.5	0	0	iti_startle
44	24	female	15	Probraum	1.5	22	1	gunmanbw	ex	black.PNG	60	0	0	0	0	03/25/22:15:19:38.839573	4948.5	0	0	guy	3	0.5	0	0	iti_startle
44	24	female	15	Probraum	1.5	22	1	gunmanbw	ex	black.PNG	60	0	0	0	0	03/25/22:15:19:38.856528	4948.515	0	0	guy	3	0.5	0	0	iti_startle
44	24	female	15	Probraum	1.5	22	1	gunmanbw	ex	black.PNG	60	0	0	0	0	03/25/22:15:19:38.873482	4948.531	0	0	guy	3	0.5	0	0	iti_startle
44	24	female	15	Probraum	1.5	22	1	gunmanbw	ex	black.PNG	60	0	0	0	0	03/25/22:15:19:38.889441	4948.546	0	0	guy	3	0.5	0	0	iti_startle
44	24	female	15	Probraum	1.5	22	1	gunmanbw	ex	black.PNG	60	0	0	0	0	03/25/22:15:19:38.906395	4948.562	0	0	guy	3	0.5	0	0	iti_startle
44	24	female	15	Probraum	1.5	22	1	gunmanbw	ex	black.PNG	60	0	0	0	0	03/25/22:15:19:38.923349	4948.578	0	0	guy	3	0.5	0	0	iti_startle
44	24	female	15	Probraum	1.5	22	1	gunmanbw	ex	black.PNG	60	0	0	0	0	03/25/22:15:19:38.939307	4948.593	0	0	guy	3	0.5	0	0	iti_startle
44	24	female	15	Probraum	1.5	22	1	gunmanbw	ex	black.PNG	60	0	0	0	0	03/25/22:15:19:38.956262	4948.609	0	0	guy	3	0.5	0	0	iti_startle
44	24	female	15	Probraum	1.5	22	1	gunmanbw	ex	black.PNG	60	0	0	0	0	03/25/22:15:19:38.973216	4948.625	0	0	guy	3	0.5	0	0	iti_startle
44	24	female	15	Probraum	1.5	22	1	gunmanbw	ex	black.PNG	60	0	0	0	0	03/25/22:15:19:38.989174	4948.64	0	0	guy	3	0.5	0	0	iti_startle
44	24	female	15	Probraum	1.5	22	1	gunmanbw	ex	black.PNG	60	0	0	0	0	03/25/22:15:19:39.016109	4948.671	0	0	guy	3	0.5	0	0	iti_startle
44	24	female	15	Probraum	1.5	22	1	gunmanbw	ex	black.PNG	60	0	0	0	0	03/25/22:15:19:39.026074	4948.687	0	0	guy	3	0.5	0	0	iti_startle
44	24	female	15	Probraum	1.5	22	1	gunmanbw	ex	black.PNG	60	0	0	0	0	03/25/22:15:19:39.039041	4948.703	0	0	guy	3	0.5	0	0	iti_startle
44	24	female	15	Probraum	1.5	22	1	gunmanbw	ex	black.PNG	60	0	0	0	0	03/25/22:15:19:39.055995	4948.718	0	0	guy	3	0.5	0	0	iti_startle
44	24	female	15	Probraum	1.5	22	1	gunmanbw	ex	black.PNG	60	0	0	0	0	03/25/22:15:19:39.071952	4948.734	0	0	guy	3	0.5	0	0	iti_startle
44	24	female	15	Probraum	1.5	22	1	gunmanbw	ex	black.PNG	60	0	0	0	0	03/25/22:15:19:39.089903	4948.75	0	0	guy	3	0.5	0	0	iti_startle
44	24	female	15	Probraum	1.5	22	1	gunmanbw	ex	black.PNG	60	0	0	0	0	03/25/22:15:19:39.105861	4948.765	0	0	guy	3	0.5	0	0	iti_startle
44	24	female	15	Probraum	1.5	22	1	gunmanbw	ex	black.PNG	60	0	0	0	0	03/25/22:15:19:39.122816	4948.781	0	0	guy	3	0.5	0	0	iti_startle
44	24	female	15	Probraum	1.5	22	1	gunmanbw	ex	black.PNG	60	0	0	0	0	03/25/22:15:19:39.139770	4948.796	0	0	guy	3	0.5	0	0	iti_startle
44	24	female	15	Probraum	1.5	22	1	gunmanbw	ex	black.PNG	60	0	0	0	0	03/25/22:15:19:39.156725	4948.812	0	0	guy	3	0.5	0	0	iti_startle
44	24	female	15	Probraum	1.5	22	1	gunmanbw	ex	black.PNG	60	0	0	0	0	03/25/22:15:19:39.172683	4948.828	0	0	guy	3	0.5	0	0	iti_startle
44	24	female	15	Probraum	1.5	22	1	gunmanbw	ex	black.PNG	60	0	0	0	0	03/25/22:15:19:39.189637	4948.843	0	0	guy	3	0.5	0	0	iti_startle
44	24	female	15	Probraum	1.5	22	1	gunmanbw	ex	black.PNG	60	0	0	0	0	03/25/22:15:19:39.206592	4948.859	0	0	guy	3	0.5	0	0	iti_startle
44	24	female	15	Probraum	1.5	22	1	gunmanbw	ex	black.PNG	60	0	0	0	0	03/25/22:15:19:39.222605	4948.875	0	0	guy	3	0.5	0	0	iti_startle
44	24	female	15	Probraum	1.5	22	1	gunmanbw	ex	black.PNG	60	0	0	0	0	03/25/22:15:19:39.239558	4948.89	0	0	guy	3	0.5	0	0	iti_startle
44	24	female	15	Probraum	1.5	22	1	gunmanbw	ex	black.PNG	60	0	0	0	0	03/25/22:15:19:39.256513	4948.906	0	0	guy	3	0.5	0	0	iti_startle
44	24	female	15	Probraum	1.5	22	1	gunmanbw	ex	black.PNG	60	0	0	0	0	03/25/22:15:19:39.273468	4948.937	0	0	guy	3	0.5	0	0	iti_startle
44	24	female	15	Probraum	1.5	22	1	gunmanbw	ex	black.PNG	60	0	0	0	0	03/25/22:15:19:39.289425	4948.953	0	0	guy	3	0.5	0	0	iti_startle
44	24	female	15	Probraum	1.5	22	1	gunmanbw	ex	black.PNG	60	0	0	0	0	03/25/22:15:19:39.306387	4948.968	0	0	guy	3	0.5	0	0	iti_startle
44	24	female	15	Probraum	1.5	22	1	gunmanbw	ex	black.PNG	60	0	0	0	0	03/25/22:15:19:39.323342	4948.984	0	0	guy	3	0.5	0	0	iti_startle
44	24	female	15	Probraum	1.5	22	1	gunmanbw	ex	black.PNG	60	0	0	0	0	03/25/22:15:19:39.339299	4949.0	0	0	guy	3	0.5	0	0	iti_startle
44	24	female	15	Probraum	1.5	22	1	gunmanbw	ex	black.PNG	60	0	0	0	0	03/25/22:15:19:39.356252	4949.015	0	0	guy	3	0.5	0	0	iti_startle
44	24	female	15	Probraum	1.5	22	1	gunmanbw	ex	black.PNG	60	0	0	0	0	03/25/22:15:19:39.373209	4949.031	0	0	guy	3	0.5	0	0	iti_startle
44	24	female	15	Probraum	1.5	22	1	gunmanbw	ex	black.PNG	60	0	0	0	0	03/25/22:15:19:39.390161	4949.046	0	0	guy	3	0.5	0	0	iti_startle
44	24	female	15	Probraum	1.5	22	1	gunmanbw	ex	black.PNG	60	0	0	0	0	03/25/22:15:19:39.406121	4949.062	0	0	guy	3	0.5	0	0	iti_startle
44	24	female	15	Probraum	1.5	22	1	gunmanbw	ex	black.PNG	60	0	0	0	0	03/25/22:15:19:39.423073	4949.078	0	0	guy	3	0.5	0	0	iti_startle
44	24	female	15	Probraum	1.5	22	1	gunmanbw	ex	black.PNG	60	0	0	0	0	03/25/22:15:19:39.440030	4949.093	0	0	guy	3	0.5	0	0	iti_startle
44	24	female	15	Probraum	1.5	22	1	gunmanbw	ex	black.PNG	60	0	0	0	0	03/25/22:15:19:39.455985	4949.109	0	0	guy	3	0.5	0	0	iti_startle
44	24	female	15	Probraum	1.5	22	1	gunmanbw	ex	black.PNG	60	0	0	0	0	03/25/22:15:19:39.472942	4949.125	0	0	guy	3	0.5	0	0	iti_startle
44	24	female	15	Probraum	1.5	22	1	gunmanbw	ex	black.PNG	60	0	0	0	0	03/25/22:15:19:39.489897	4949.14	0	0	guy	3	0.5	0	0	iti_startle
44	24	female	15	Probraum	1.5	22	1	gunmanbw	ex	black.PNG	60	0	0	0	0	03/25/22:15:19:39.505854	4949.156	0	0	guy	3	0.5	0	0	iti_startle
44	24	female	15	Probraum	1.5	22	1	gunmanbw	ex	black.PNG	60	0	0	0	0	03/25/22:15:19:39.522809	4949.171	0	0	guy	3	0.5	0	0	iti_startle
44	24	female	15	Probraum	1.5	22	1	gunmanbw	ex	black.PNG	60	0	0	0	0	03/25/22:15:19:39.539763	4949.203	0	0	guy	3	0.5	0	0	iti_startle
44	24	female	15	Probraum	1.5	22	1	gunmanbw	ex	black.PNG	60	0	0	0	0	03/25/22:15:19:39.556718	4949.218	0	0	guy	3	0.5	0	0	iti_startle
44	24	female	15	Probraum	1.5	22	1	gunmanbw	ex	black.PNG	60	0	0	0	0	03/25/22:15:19:39.572675	4949.234	0	0	guy	3	0.5	0	0	iti_startle
44	24	female	15	Probraum	1.5	22	1	gunmanbw	ex	black.PNG	60	0	0	0	0	03/25/22:15:19:39.590628	4949.25	0	0	guy	3	0.5	0	0	iti_startle
44	24	female	15	Probraum	1.5	22	1	gunmanbw	ex	black.PNG	60	0	0	0	0	03/25/22:15:19:39.606585	4949.265	0	0	guy	3	0.5	0	0	iti_startle
44	24	female	15	Probraum	1.5	22	1	gunmanbw	ex	black.PNG	60	0	0	0	0	03/25/22:15:19:39.622547	4949.281	0	0	guy	3	0.5	0	0	iti_startle
44	24	female	15	Probraum	1.5	22	1	gunmanbw	ex	black.PNG	60	0	0	0	0	03/25/22:15:19:39.639504	4949.296	0	0	guy	3	0.5	0	0	iti_startle
44	24	female	15	Probraum	1.5	22	1	gunmanbw	ex	black.PNG	60	0	0	0	0	03/25/22:15:19:39.656458	4949.312	0	0	opp	3	0.5	0	0	iti_startle
44	24	female	15	Probraum	1.5	22	1	gunmanbw	ex	black.PNG	60	0	0	0	0	03/25/22:15:19:39.673413	4949.328	0	0	opp	3	0.5	0	0	iti_startle
44	24	female	15	Probraum	1.5	22	1	gunmanbw	ex	black.PNG	60	0	0	0	0	03/25/22:15:19:39.690375	4949.343	0	0	opp	3	0.5	0	0	iti_startle
44	24	female	15	Probraum	1.5	22	1	gunmanbw	ex	black.PNG	60	0	0	0	0	03/25/22:15:19:39.706332	4949.359	0	0	opp	3	0.5	0	0	iti_startle
44	24	female	15	Probraum	1.5	22	1	gunmanbw	ex	black.PNG	60	0	0	0	0	03/25/22:15:19:39.723287	4949.375	0	0	opp	3	0.5	0	0	iti_startle
44	24	female	15	Probraum	1.5	22	1	gunmanbw	ex	black.PNG	60	0	0	0	0	03/25/22:15:19:39.739242	4949.39	0	0	opp	3	0.5	0	0	iti_startle
44	24	female	15	Probraum	1.5	22	1	gunmanbw	ex	black.PNG	60	0	0	0	0	03/25/22:15:19:39.756199	4949.406	0	0	opp	3	0.5	0	0	iti_startle
44	24	female	15	Probraum	1.5	22	1	gunmanbw	ex	black.PNG	60	0	0	0	0	03/25/22:15:19:39.773154	4949.437	0	0	opp	3	0.5	0	0	iti_startle
44	24	female	15	Probraum	1.5	22	1	gunmanbw	ex	black.PNG	60	0	0	0	0	03/25/22:15:19:39.790108	4949.453	0	0	opp	3	0.5	0	0	iti_startle
44	24	female	15	Probraum	1.5	22	1	gunmanbw	ex	black.PNG	60	0	0	0	0	03/25/22:15:19:39.806065	4949.468	0	0	opp	3	0.5	0	0	iti_startle
44	24	female	15	Probraum	1.5	22	1	gunmanbw	ex	black.PNG	60	0	0	0	0	03/25/22:15:19:39.823018	4949.484	0	0	opp	3	0.5	0	0	iti_startle
44	24	female	15	Probraum	1.5	22	1	gunmanbw	ex	black.PNG	60	0	0	0	0	03/25/22:15:19:39.839975	4949.5	0	0	opp	3	0.5	0	0	iti_startle
44	24	female	15	Probraum	1.5	22	1	gunmanbw	ex	black.PNG	60	0	0	0	0	03/25/22:15:19:39.856930	4949.515	0	0	opp	3	0.5	0	0	iti_startle
44	24	female	15	Probraum	1.5	22	1	gunmanbw	ex	black.PNG	60	0	0	0	0	03/25/22:15:19:39.872887	4949.531	0	0	opp	3	0.5	0	0	iti_startle
44	24	female	15	Probraum	1.5	22	1	gunmanbw	ex	black.PNG	60	0	0	0	0	03/25/22:15:19:39.889839	4949.546	0	0	opp	3	0.5	0	0	iti_startle
44	24	female	15	Probraum	1.5	22	1	gunmanbw	ex	black.PNG	60	0	0	0	0	03/25/22:15:19:39.906796	4949.562	0	0	opp	3	0.5	0	0	iti_startle
44	24	female	15	Probraum	1.5	22	1	gunmanbw	ex	black.PNG	60	0	0	0	0	03/25/22:15:19:39.923751	4949.578	0	0	opp	3	0.5	0	0	iti_startle
44	24	female	15	Probraum	1.5	22	1	gunmanbw	ex	black.PNG	60	0	0	0	0	03/25/22:15:19:39.939708	4949.593	0	0	opp	3	0.5	0	0	iti_startle
44	24	female	15	Probraum	1.5	22	1	gunmanbw	ex	black.PNG	60	0	0	0	0	03/25/22:15:19:39.956661	4949.609	0	0	opp	3	0.5	0	0	iti_startle
44	24	female	15	Probraum	1.5	22	1	gunmanbw	ex	black.PNG	60	0	0	0	0	03/25/22:15:19:39.973617	4949.625	0	0	opp	3	0.5	0	0	iti_startle
44	24	female	15	Probraum	1.5	22	1	gunmanbw	ex	black.PNG	60	0	0	0	0	03/25/22:15:19:39.990573	4949.64	0	0	opp	3	0.5	0	0	iti_startle
44	24	female	15	Probraum	1.5	22	1	gunmanbw	ex	black.PNG	60	0	0	0	0	03/25/22:15:19:40.006529	4949.656	0	0	opp	3	0.5	0	0	iti_startle
44	24	female	15	Probraum	1.5	22	1	gunmanbw	ex	black.PNG	60	0	0	0	0	03/25/22:15:19:40.023485	4949.687	0	0	opp	3	0.5	0	0	iti_startle
44	24	female	15	Probraum	1.5	22	1	gunmanbw	ex	black.PNG	60	0	0	0	0	03/25/22:15:19:40.039442	4949.703	0	0	opp	3	0.5	0	0	iti_startle
44	24	female	15	Probraum	1.5	22	1	gunmanbw	ex	black.PNG	60	0	0	0	0	03/25/22:15:19:40.056394	4949.718	0	0	opp	3	0.5	0	0	iti_startle
44	24	female	15	Probraum	1.5	22	1	gunmanbw	ex	black.PNG	60	0	0	0	0	03/25/22:15:19:40.073351	4949.734	0	0	opp	3	0.5	0	0	iti_startle
44	24	female	15	Probraum	1.5	22	1	gunmanbw	ex	black.PNG	60	0	0	0	0	03/25/22:15:19:40.090306	4949.75	0	0	opp	3	0.5	0	0	iti_startle
44	24	female	15	Probraum	1.5	22	1	gunmanbw	ex	black.PNG	60	0	0	0	0	03/25/22:15:19:40.106263	4949.765	0	0	opp	3	0.5	0	0	iti_startle
44	24	female	15	Probraum	1.5	22	1	gunmanbw	ex	black.PNG	60	0	0	0	0	03/25/22:15:19:40.123218	4949.781	0	0	opp	3	0.5	0	0	iti_startle
44	24	female	15	Probraum	1.5	22	1	gunmanbw	ex	black.PNG	60	0	0	0	0	03/25/22:15:19:40.140172	4949.796	0	0	opp	3	0.5	0	0	iti_startle
44	24	female	15	Probraum	1.5	22	1	gunmanbw	ex	black.PNG	60	0	1	1	0	03/25/22:15:19:40.761510	4950.421	0	I	follow up	3	0.5	0	0	iti_startle
44	24	female	15	Probraum	1.5	22	1	gunmanbw	ex	black.PNG	60	0	1	1	0	03/25/22:15:19:40.761510	4950.421	0	I	follow up	3	0.5	0	0	iti_startle
44	24	female	15	Probraum	1.5	22	1	gunmancaro	ex	black.PNG	60	0	0	1	0	03/25/22:15:19:49.867216	4959.531	0	0	onset	3	0.5	0	0	dot_starte
44	24	female	15	Probraum	1.5	22	1	gunmancaro	ex	black.PNG	60	0	0	1	0	03/25/22:15:19:49.984899	4959.64	0	0	anticipation	3	0.5	0	0	dot_starte
44	24	female	15	Probraum	1.5	22	1	gunmancaro	ex	black.PNG	60	0	0	1	0	03/25/22:15:19:50.096600	4959.75	0	0	anticipation	3	0.5	0	0	dot_starte
44	24	female	15	Probraum	1.5	22	1	gunmancaro	ex	black.PNG	60	0	0	1	0	03/25/22:15:19:50.208301	4959.859	0	0	anticipation	3	0.5	0	0	dot_starte
44	24	female	15	Probraum	1.5	22	1	gunmancaro	ex	black.PNG	60	0	0	1	0	03/25/22:15:19:50.320005	4959.984	0	0	anticipation	3	0.5	0	0	dot_starte
44	24	female	15	Probraum	1.5	22	1	gunmancaro	ex	black.PNG	60	0	0	1	0	03/25/22:15:19:50.431704	4960.093	0	0	anticipation	3	0.5	0	0	dot_starte
44	24	female	15	Probraum	1.5	22	1	gunmancaro	ex	black.PNG	60	0	0	1	0	03/25/22:15:19:50.541411	4960.203	0	0	anticipation	3	0.5	0	0	dot_starte
44	24	female	15	Probraum	1.5	22	1	gunmancaro	ex	black.PNG	60	0	0	1	0	03/25/22:15:19:50.653112	4960.312	0	0	anticipation	3	0.5	0	0	dot_starte
44	24	female	15	Probraum	1.5	22	1	gunmancaro	ex	black.PNG	60	0	0	1	0	03/25/22:15:19:50.765813	4960.421	0	0	anticipation	3	0.5	0	0	dot_starte
44	24	female	15	Probraum	1.5	22	1	gunmancaro	ex	black.PNG	60	0	0	1	0	03/25/22:15:19:50.901447	4960.562	0	0	anticipation	3	0.5	0	0	dot_starte
44	24	female	15	Probraum	1.5	22	1	gunmancaro	ex	black.PNG	60	0	0	1	0	03/25/22:15:19:51.014146	4960.671	0	0	anticipation	3	0.5	0	0	dot_starte
44	24	female	15	Probraum	1.5	22	1	gunmancaro	ex	black.PNG	60	0	0	1	0	03/25/22:15:19:51.125848	4960.781	0	0	anticipation	3	0.5	0	0	dot_starte
44	24	female	15	Probraum	1.5	22	1	gunmancaro	ex	black.PNG	60	0	0	1	0	03/25/22:15:19:51.237549	4960.89	0	0	anticipation	3	0.5	0	0	dot_starte
44	24	female	15	Probraum	1.5	22	1	gunmancaro	ex	black.PNG	60	0	0	1	0	03/25/22:15:19:51.348256	4961.0	0	0	anticipation	3	0.5	0	0	dot_starte
44	24	female	15	Probraum	1.5	22	1	gunmancaro	ex	black.PNG	60	0	0	1	0	03/25/22:15:19:51.460951	4961.125	0	0	anticipation	3	0.5	0	0	dot_starte
44	24	female	15	Probraum	1.5	22	1	gunmancaro	ex	black.PNG	60	0	0	1	0	03/25/22:15:19:51.572655	4961.234	0	0	anticipation	3	0.5	0	0	dot_starte
44	24	female	15	Probraum	1.5	22	1	gunmancaro	ex	black.PNG	60	0	0	1	0	03/25/22:15:19:51.708293	4961.359	0	0	anticipation	3	0.5	0	0	dot_starte
44	24	female	15	Probraum	1.5	22	1	gunmancaro	ex	black.PNG	60	0	0	1	0	03/25/22:15:19:51.818994	4961.468	0	0	anticipation	3	0.5	0	0	dot_starte
44	24	female	15	Probraum	1.5	22	1	gunmancaro	ex	black.PNG	60	0	0	1	0	03/25/22:15:19:51.929698	4961.593	0	0	anticipation	3	0.5	0	0	dot_starte
44	24	female	15	Probraum	1.5	22	1	gunmancaro	ex	black.PNG	60	0	0	1	0	03/25/22:15:19:52.040404	4961.703	0	0	anticipation	3	0.5	0	0	dot_starte
44	24	female	15	Probraum	1.5	22	1	gunmancaro	ex	black.PNG	60	0	0	1	0	03/25/22:15:19:52.151105	4961.812	0	0	anticipation	3	0.5	0	0	dot_starte
44	24	female	15	Probraum	1.5	22	1	gunmancaro	ex	black.PNG	60	0	0	1	0	03/25/22:15:19:52.261810	4961.921	0	0	anticipation	3	0.5	0	0	dot_starte
44	24	female	15	Probraum	1.5	22	1	gunmancaro	ex	black.PNG	60	0	0	1	0	03/25/22:15:19:52.372516	4962.031	0	0	anticipation	3	0.5	0	0	dot_starte
44	24	female	15	Probraum	1.5	22	1	gunmancaro	ex	black.PNG	60	0	0	1	0	03/25/22:15:19:52.481222	4962.14	0	0	anticipation	3	0.5	0	0	dot_starte
44	24	female	15	Probraum	1.5	22	1	gunmancaro	ex	black.PNG	60	0	0	1	0	03/25/22:15:19:52.592925	4962.25	0	0	anticipation	3	0.5	0	0	dot_starte
44	24	female	15	Probraum	1.5	22	1	gunmancaro	ex	black.PNG	60	0	0	1	0	03/25/22:15:19:52.704627	4962.359	0	0	anticipation	3	0.5	0	0	dot_starte
44	24	female	15	Probraum	1.5	22	1	gunmancaro	ex	black.PNG	60	0	0	1	0	03/25/22:15:19:52.815329	4962.468	0	0	anticipation	3	0.5	0	0	dot_starte
44	24	female	15	Probraum	1.5	22	1	gunmancaro	ex	black.PNG	60	0	0	1	0	03/25/22:15:19:52.926036	4962.578	0	0	anticipation	3	0.5	0	0	dot_starte
44	24	female	15	Probraum	1.5	22	1	gunmancaro	ex	black.PNG	60	0	0	1	0	03/25/22:15:19:53.036737	4962.687	0	0	anticipation	3	0.5	0	0	dot_starte
44	24	female	15	Probraum	1.5	22	1	gunmancaro	ex	black.PNG	60	0	0	1	0	03/25/22:15:19:53.148440	4962.812	0	0	anticipation	3	0.5	0	0	dot_starte
44	24	female	15	Probraum	1.5	22	1	gunmancaro	ex	black.PNG	60	0	0	1	0	03/25/22:15:19:53.259142	4962.921	0	0	anticipation	3	0.5	0	0	dot_starte
44	24	female	15	Probraum	1.5	22	1	gunmancaro	ex	black.PNG	60	0	0	1	0	03/25/22:15:19:53.370846	4963.031	0	0	anticipation	3	0.5	0	0	dot_starte
44	24	female	15	Probraum	1.5	22	1	gunmancaro	ex	black.PNG	60	0	0	1	0	03/25/22:15:19:53.479553	4963.14	0	0	anticipation	3	0.5	0	0	dot_starte
