ID	age	sex	investigator	location	shockamplitude	roomtemperature	counterbalance	opponent	trialnr	blink	blinktime	click_check	shock_check	shock_count	shock_ratio	current_time	coreTrialStart	RT	accuracy	marker	iti	ind_time	cond_threat_count	shock_threat_count	startle
48	22	female	8	Probraum	2.5	20	2	gunmanbw	ex	black.PNG	60	0	0	0	0	04/05/22:18:03:27.931257	2384.734	0	0	onset	3	0.5	0	0	iti_startle
48	22	female	8	Probraum	2.5	20	2	gunmanbw	ex	black.PNG	60	0	0	0	0	04/05/22:18:03:28.041959	2384.843	0	0	anticipation	3	0.5	0	0	iti_startle
48	22	female	8	Probraum	2.5	20	2	gunmanbw	ex	black.PNG	60	0	0	0	0	04/05/22:18:03:28.154660	2384.968	0	0	anticipation	3	0.5	0	0	iti_startle
48	22	female	8	Probraum	2.5	20	2	gunmanbw	ex	black.PNG	60	0	0	0	0	04/05/22:18:03:28.267356	2385.078	0	0	anticipation	3	0.5	0	0	iti_startle
48	22	female	8	Probraum	2.5	20	2	gunmanbw	ex	black.PNG	60	0	0	0	0	04/05/22:18:03:28.379058	2385.187	0	0	anticipation	3	0.5	0	0	iti_startle
48	22	female	8	Probraum	2.5	20	2	gunmanbw	ex	black.PNG	60	0	0	0	0	04/05/22:18:03:28.490764	2385.296	0	0	anticipation	3	0.5	0	0	iti_startle
48	22	female	8	Probraum	2.5	20	2	gunmanbw	ex	black.PNG	60	0	0	0	0	04/05/22:18:03:28.603460	2385.406	0	0	anticipation	3	0.5	0	0	iti_startle
48	22	female	8	Probraum	2.5	20	2	gunmanbw	ex	black.PNG	60	0	0	0	0	04/05/22:18:03:28.716156	2385.515	0	0	anticipation	3	0.5	0	0	iti_startle
48	22	female	8	Probraum	2.5	20	2	gunmanbw	ex	black.PNG	60	0	0	0	0	04/05/22:18:03:28.828855	2385.64	0	0	anticipation	3	0.5	0	0	iti_startle
48	22	female	8	Probraum	2.5	20	2	gunmanbw	ex	black.PNG	60	0	0	0	0	04/05/22:18:03:28.941554	2385.75	0	0	anticipation	3	0.5	0	0	iti_startle
48	22	female	8	Probraum	2.5	20	2	gunmanbw	ex	black.PNG	60	0	0	0	0	04/05/22:18:03:29.054253	2385.859	0	0	anticipation	3	0.5	0	0	iti_startle
48	22	female	8	Probraum	2.5	20	2	gunmanbw	ex	black.PNG	60	0	0	0	0	04/05/22:18:03:29.167949	2385.968	0	0	anticipation	3	0.5	0	0	iti_startle
48	22	female	8	Probraum	2.5	20	2	gunmanbw	ex	black.PNG	60	0	0	0	0	04/05/22:18:03:29.280657	2386.093	0	0	anticipation	3	0.5	0	0	iti_startle
48	22	female	8	Probraum	2.5	20	2	gunmanbw	ex	black.PNG	60	0	0	0	0	04/05/22:18:03:29.393346	2386.203	0	0	anticipation	3	0.5	0	0	iti_startle
48	22	female	8	Probraum	2.5	20	2	gunmanbw	ex	black.PNG	60	0	0	0	0	04/05/22:18:03:29.506045	2386.312	0	0	anticipation	3	0.5	0	0	iti_startle
48	22	female	8	Probraum	2.5	20	2	gunmanbw	ex	black.PNG	60	0	0	0	0	04/05/22:18:03:29.619743	2386.421	0	0	anticipation	3	0.5	0	0	iti_startle
48	22	female	8	Probraum	2.5	20	2	gunmanbw	ex	black.PNG	60	0	0	0	0	04/05/22:18:03:29.730450	2386.531	0	0	anticipation	3	0.5	0	0	iti_startle
48	22	female	8	Probraum	2.5	20	2	gunmanbw	ex	black.PNG	60	0	0	0	0	04/05/22:18:03:29.843143	2386.656	0	0	anticipation	3	0.5	0	0	iti_startle
48	22	female	8	Probraum	2.5	20	2	gunmanbw	ex	black.PNG	60	0	0	0	0	04/05/22:18:03:29.956841	2386.765	0	0	anticipation	3	0.5	0	0	iti_startle
48	22	female	8	Probraum	2.5	20	2	gunmanbw	ex	black.PNG	60	0	0	0	0	04/05/22:18:03:30.069538	2386.875	0	0	anticipation	3	0.5	0	0	iti_startle
48	22	female	8	Probraum	2.5	20	2	gunmanbw	ex	black.PNG	60	0	0	0	0	04/05/22:18:03:30.182236	2386.984	0	0	anticipation	3	0.5	0	0	iti_startle
48	22	female	8	Probraum	2.5	20	2	gunmanbw	ex	black.PNG	60	0	0	0	0	04/05/22:18:03:30.294937	2387.109	0	0	anticipation	3	0.5	0	0	iti_startle
48	22	female	8	Probraum	2.5	20	2	gunmanbw	ex	black.PNG	60	0	0	0	0	04/05/22:18:03:30.406637	2387.218	0	0	anticipation	3	0.5	0	0	iti_startle
48	22	female	8	Probraum	2.5	20	2	gunmanbw	ex	black.PNG	60	0	0	0	0	04/05/22:18:03:30.519338	2387.328	0	0	anticipation	3	0.5	0	0	iti_startle
48	22	female	8	Probraum	2.5	20	2	gunmanbw	ex	black.PNG	60	0	0	0	0	04/05/22:18:03:30.632036	2387.437	0	0	anticipation	3	0.5	0	0	iti_startle
48	22	female	8	Probraum	2.5	20	2	gunmanbw	ex	black.PNG	60	0	0	0	0	04/05/22:18:03:30.741741	2387.546	0	0	anticipation	3	0.5	0	0	iti_startle
48	22	female	8	Probraum	2.5	20	2	gunmanbw	ex	black.PNG	60	0	0	0	0	04/05/22:18:03:30.854446	2387.656	0	0	anticipation	3	0.5	0	0	iti_startle
48	22	female	8	Probraum	2.5	20	2	gunmanbw	ex	black.PNG	60	0	0	0	0	04/05/22:18:03:30.968135	2387.781	0	0	anticipation	3	0.5	0	0	iti_startle
48	22	female	8	Probraum	2.5	20	2	gunmanbw	ex	black.PNG	60	0	0	0	0	04/05/22:18:03:31.079837	2387.89	0	0	anticipation	3	0.5	0	0	iti_startle
48	22	female	8	Probraum	2.5	20	2	gunmanbw	ex	black.PNG	60	0	0	0	0	04/05/22:18:03:31.192535	2388.0	0	0	anticipation	3	0.5	0	0	iti_startle
48	22	female	8	Probraum	2.5	20	2	gunmanbw	ex	black.PNG	60	0	0	0	0	04/05/22:18:03:31.305234	2388.109	0	0	anticipation	3	0.5	0	0	iti_startle
48	22	female	8	Probraum	2.5	20	2	gunmanbw	ex	black.PNG	60	0	0	0	0	04/05/22:18:03:31.417939	2388.218	0	0	anticipation	3	0.5	0	0	iti_startle
48	22	female	8	Probraum	2.5	20	2	gunmanbw	ex	black.PNG	60	0	0	0	0	04/05/22:18:03:31.530634	2388.343	0	0	anticipation	3	0.5	0	0	iti_startle
48	22	female	8	Probraum	2.5	20	2	gunmanbw	ex	black.PNG	60	0	0	0	0	04/05/22:18:03:31.642333	2388.453	0	0	anticipation	3	0.5	0	0	iti_startle
48	22	female	8	Probraum	2.5	20	2	gunmanbw	ex	black.PNG	60	0	0	0	0	04/05/22:18:03:31.755032	2388.562	0	0	anticipation	3	0.5	0	0	iti_startle
48	22	female	8	Probraum	2.5	20	2	gunmanbw	ex	black.PNG	60	0	0	0	0	04/05/22:18:03:31.868727	2388.671	0	0	anticipation	3	0.5	0	0	iti_startle
48	22	female	8	Probraum	2.5	20	2	gunmanbw	ex	black.PNG	60	0	0	0	0	04/05/22:18:03:32.007357	2388.812	0	0	anticipation	3	0.5	0	0	iti_startle
48	22	female	8	Probraum	2.5	20	2	gunmanbw	ex	black.PNG	60	0	0	0	0	04/05/22:18:03:32.121053	2388.921	0	0	anticipation	3	0.5	0	0	iti_startle
48	22	female	8	Probraum	2.5	20	2	gunmanbw	ex	black.PNG	60	0	0	0	0	04/05/22:18:03:32.234748	2389.046	0	0	anticipation	3	0.5	0	0	iti_startle
48	22	female	8	Probraum	2.5	20	2	gunmanbw	ex	black.PNG	60	0	0	0	0	04/05/22:18:03:32.348447	2389.156	0	0	anticipation	3	0.5	0	0	iti_startle
48	22	female	8	Probraum	2.5	20	2	gunmanbw	ex	black.PNG	60	0	0	0	0	04/05/22:18:03:32.461146	2389.265	0	0	anticipation	3	0.5	0	0	iti_startle
48	22	female	8	Probraum	2.5	20	2	gunmanbw	ex	black.PNG	60	0	0	0	0	04/05/22:18:03:32.573843	2389.375	0	0	anticipation	3	0.5	0	0	iti_startle
48	22	female	8	Probraum	2.5	20	2	gunmanbw	ex	black.PNG	60	0	0	0	0	04/05/22:18:03:32.688538	2389.5	0	0	anticipation	3	0.5	0	0	iti_startle
48	22	female	8	Probraum	2.5	20	2	gunmanbw	ex	black.PNG	60	0	0	0	0	04/05/22:18:03:32.801236	2389.609	0	0	anticipation	3	0.5	0	0	iti_startle
48	22	female	8	Probraum	2.5	20	2	gunmanbw	ex	black.PNG	60	0	0	0	0	04/05/22:18:03:32.913933	2389.718	0	0	anticipation	3	0.5	0	0	iti_startle
48	22	female	8	Probraum	2.5	20	2	gunmanbw	ex	black.PNG	60	0	0	0	0	04/05/22:18:03:33.026634	2389.828	0	0	anticipation	3	0.5	0	0	iti_startle
48	22	female	8	Probraum	2.5	20	2	gunmanbw	ex	black.PNG	60	0	0	0	0	04/05/22:18:03:33.139332	2389.953	0	0	anticipation	3	0.5	0	0	iti_startle
48	22	female	8	Probraum	2.5	20	2	gunmanbw	ex	black.PNG	60	0	0	0	0	04/05/22:18:03:33.252029	2390.062	0	0	anticipation	3	0.5	0	0	iti_startle
48	22	female	8	Probraum	2.5	20	2	gunmanbw	ex	black.PNG	60	0	0	0	0	04/05/22:18:03:33.364727	2390.171	0	0	anticipation	3	0.5	0	0	iti_startle
48	22	female	8	Probraum	2.5	20	2	gunmanbw	ex	black.PNG	60	0	0	0	0	04/05/22:18:03:33.478426	2390.281	0	0	anticipation	3	0.5	0	0	iti_startle
48	22	female	8	Probraum	2.5	20	2	gunmanbw	ex	black.PNG	60	0	0	0	0	04/05/22:18:03:33.591122	2390.39	0	0	anticipation	3	0.5	0	0	iti_startle
48	22	female	8	Probraum	2.5	20	2	gunmanbw	ex	black.PNG	60	0	0	0	0	04/05/22:18:03:33.701826	2390.515	0	0	anticipation	3	0.5	0	0	iti_startle
48	22	female	8	Probraum	2.5	20	2	gunmanbw	ex	black.PNG	60	0	0	0	0	04/05/22:18:03:33.815522	2390.625	0	0	anticipation	3	0.5	0	0	iti_startle
48	22	female	8	Probraum	2.5	20	2	gunmanbw	ex	black.PNG	60	0	0	0	0	04/05/22:18:03:33.928221	2390.734	0	0	anticipation	3	0.5	0	0	iti_startle
48	22	female	8	Probraum	2.5	20	2	gunmanbw	ex	black.PNG	60	0	0	0	0	04/05/22:18:03:34.042916	2390.843	0	0	anticipation	3	0.5	0	0	iti_startle
48	22	female	8	Probraum	2.5	20	2	gunmanbw	ex	black.PNG	60	0	0	0	0	04/05/22:18:03:34.045906	2390.859	0	0	guy	3	0.5	0	0	iti_startle
48	22	female	8	Probraum	2.5	20	2	gunmanbw	ex	black.PNG	60	0	0	0	0	04/05/22:18:03:34.062861	2390.875	0	0	guy	3	0.5	0	0	iti_startle
48	22	female	8	Probraum	2.5	20	2	gunmanbw	ex	black.PNG	60	0	0	0	0	04/05/22:18:03:34.079818	2390.89	0	0	guy	3	0.5	0	0	iti_startle
48	22	female	8	Probraum	2.5	20	2	gunmanbw	ex	black.PNG	60	0	0	0	0	04/05/22:18:03:34.095773	2390.906	0	0	guy	3	0.5	0	0	iti_startle
48	22	female	8	Probraum	2.5	20	2	gunmanbw	ex	black.PNG	60	0	0	0	0	04/05/22:18:03:34.119709	2390.921	0	0	guy	3	0.5	0	0	iti_startle
48	22	female	8	Probraum	2.5	20	2	gunmanbw	ex	black.PNG	60	0	0	0	0	04/05/22:18:03:34.131679	2390.937	0	0	guy	3	0.5	0	0	iti_startle
48	22	female	8	Probraum	2.5	20	2	gunmanbw	ex	black.PNG	60	0	0	0	0	04/05/22:18:03:34.146637	2390.953	0	0	guy	3	0.5	0	0	iti_startle
48	22	female	8	Probraum	2.5	20	2	gunmanbw	ex	black.PNG	60	0	0	0	0	04/05/22:18:03:34.162594	2390.968	0	0	guy	3	0.5	0	0	iti_startle
48	22	female	8	Probraum	2.5	20	2	gunmanbw	ex	black.PNG	60	0	0	0	0	04/05/22:18:03:34.179549	2390.984	0	0	guy	3	0.5	0	0	iti_startle
48	22	female	8	Probraum	2.5	20	2	gunmanbw	ex	black.PNG	60	0	0	0	0	04/05/22:18:03:34.196504	2391.0	0	0	guy	3	0.5	0	0	iti_startle
48	22	female	8	Probraum	2.5	20	2	gunmanbw	ex	black.PNG	60	0	0	0	0	04/05/22:18:03:34.213459	2391.015	0	0	guy	3	0.5	0	0	iti_startle
48	22	female	8	Probraum	2.5	20	2	gunmanbw	ex	black.PNG	60	0	0	0	0	04/05/22:18:03:34.230415	2391.031	0	0	guy	3	0.5	0	0	iti_startle
48	22	female	8	Probraum	2.5	20	2	gunmanbw	ex	black.PNG	60	0	0	0	0	04/05/22:18:03:34.246370	2391.046	0	0	guy	3	0.5	0	0	iti_startle
48	22	female	8	Probraum	2.5	20	2	gunmanbw	ex	black.PNG	60	0	0	0	0	04/05/22:18:03:34.263326	2391.062	0	0	guy	3	0.5	0	0	iti_startle
48	22	female	8	Probraum	2.5	20	2	gunmanbw	ex	black.PNG	60	0	0	0	0	04/05/22:18:03:34.280280	2391.093	0	0	guy	3	0.5	0	0	iti_startle
48	22	female	8	Probraum	2.5	20	2	gunmanbw	ex	black.PNG	60	0	0	0	0	04/05/22:18:03:34.297237	2391.109	0	0	guy	3	0.5	0	0	iti_startle
48	22	female	8	Probraum	2.5	20	2	gunmanbw	ex	black.PNG	60	0	0	0	0	04/05/22:18:03:34.313192	2391.125	0	0	guy	3	0.5	0	0	iti_startle
48	22	female	8	Probraum	2.5	20	2	gunmanbw	ex	black.PNG	60	0	0	0	0	04/05/22:18:03:34.330146	2391.14	0	0	guy	3	0.5	0	0	iti_startle
48	22	female	8	Probraum	2.5	20	2	gunmanbw	ex	black.PNG	60	0	0	0	0	04/05/22:18:03:34.347103	2391.156	0	0	guy	3	0.5	0	0	iti_startle
48	22	female	8	Probraum	2.5	20	2	gunmanbw	ex	black.PNG	60	0	0	0	0	04/05/22:18:03:34.363059	2391.171	0	0	guy	3	0.5	0	0	iti_startle
48	22	female	8	Probraum	2.5	20	2	gunmanbw	ex	black.PNG	60	0	0	0	0	04/05/22:18:03:34.380014	2391.187	0	0	guy	3	0.5	0	0	iti_startle
48	22	female	8	Probraum	2.5	20	2	gunmanbw	ex	black.PNG	60	0	0	0	0	04/05/22:18:03:34.396967	2391.203	0	0	guy	3	0.5	0	0	iti_startle
48	22	female	8	Probraum	2.5	20	2	gunmanbw	ex	black.PNG	60	0	0	0	0	04/05/22:18:03:34.413924	2391.218	0	0	guy	3	0.5	0	0	iti_startle
48	22	female	8	Probraum	2.5	20	2	gunmanbw	ex	black.PNG	60	0	0	0	0	04/05/22:18:03:34.429880	2391.234	0	0	guy	3	0.5	0	0	iti_startle
48	22	female	8	Probraum	2.5	20	2	gunmanbw	ex	black.PNG	60	0	0	0	0	04/05/22:18:03:34.446834	2391.25	0	0	guy	3	0.5	0	0	iti_startle
48	22	female	8	Probraum	2.5	20	2	gunmanbw	ex	black.PNG	60	0	0	0	0	04/05/22:18:03:34.463791	2391.265	0	0	guy	3	0.5	0	0	iti_startle
48	22	female	8	Probraum	2.5	20	2	gunmanbw	ex	black.PNG	60	0	0	0	0	04/05/22:18:03:34.479747	2391.281	0	0	guy	3	0.5	0	0	iti_startle
48	22	female	8	Probraum	2.5	20	2	gunmanbw	ex	black.PNG	60	0	0	0	0	04/05/22:18:03:34.496703	2391.296	0	0	guy	3	0.5	0	0	iti_startle
48	22	female	8	Probraum	2.5	20	2	gunmanbw	ex	black.PNG	60	0	0	0	0	04/05/22:18:03:34.512659	2391.312	0	0	guy	3	0.5	0	0	iti_startle
48	22	female	8	Probraum	2.5	20	2	gunmanbw	ex	black.PNG	60	0	0	0	0	04/05/22:18:03:34.529613	2391.343	0	0	guy	3	0.5	0	0	iti_startle
48	22	female	8	Probraum	2.5	20	2	gunmanbw	ex	black.PNG	60	0	0	0	0	04/05/22:18:03:34.546568	2391.359	0	0	guy	3	0.5	0	0	iti_startle
48	22	female	8	Probraum	2.5	20	2	gunmanbw	ex	black.PNG	60	0	0	0	0	04/05/22:18:03:34.563524	2391.375	0	0	guy	3	0.5	0	0	iti_startle
48	22	female	8	Probraum	2.5	20	2	gunmanbw	ex	black.PNG	60	0	0	0	0	04/05/22:18:03:34.580479	2391.39	0	0	guy	3	0.5	0	0	iti_startle
48	22	female	8	Probraum	2.5	20	2	gunmanbw	ex	black.PNG	60	0	0	0	0	04/05/22:18:03:34.597434	2391.406	0	0	guy	3	0.5	0	0	iti_startle
48	22	female	8	Probraum	2.5	20	2	gunmanbw	ex	black.PNG	60	0	0	0	0	04/05/22:18:03:34.613390	2391.421	0	0	guy	3	0.5	0	0	iti_startle
48	22	female	8	Probraum	2.5	20	2	gunmanbw	ex	black.PNG	60	0	0	0	0	04/05/22:18:03:34.630346	2391.437	0	0	guy	3	0.5	0	0	iti_startle
48	22	female	8	Probraum	2.5	20	2	gunmanbw	ex	black.PNG	60	0	0	0	0	04/05/22:18:03:34.647301	2391.453	0	0	guy	3	0.5	0	0	iti_startle
48	22	female	8	Probraum	2.5	20	2	gunmanbw	ex	black.PNG	60	0	0	0	0	04/05/22:18:03:34.663256	2391.468	0	0	guy	3	0.5	0	0	iti_startle
48	22	female	8	Probraum	2.5	20	2	gunmanbw	ex	black.PNG	60	0	0	0	0	04/05/22:18:03:34.680212	2391.484	0	0	guy	3	0.5	0	0	iti_startle
48	22	female	8	Probraum	2.5	20	2	gunmanbw	ex	black.PNG	60	0	0	0	0	04/05/22:18:03:34.696168	2391.5	0	0	guy	3	0.5	0	0	iti_startle
48	22	female	8	Probraum	2.5	20	2	gunmanbw	ex	black.PNG	60	0	0	0	0	04/05/22:18:03:34.713123	2391.515	0	0	guy	3	0.5	0	0	iti_startle
48	22	female	8	Probraum	2.5	20	2	gunmanbw	ex	black.PNG	60	0	0	0	0	04/05/22:18:03:34.730079	2391.531	0	0	guy	3	0.5	0	0	iti_startle
48	22	female	8	Probraum	2.5	20	2	gunmanbw	ex	black.PNG	60	0	0	0	0	04/05/22:18:03:34.747034	2391.546	0	0	guy	3	0.5	0	0	iti_startle
48	22	female	8	Probraum	2.5	20	2	gunmanbw	ex	black.PNG	60	0	0	0	0	04/05/22:18:03:34.762989	2391.562	0	0	guy	3	0.5	0	0	iti_startle
48	22	female	8	Probraum	2.5	20	2	gunmanbw	ex	black.PNG	60	0	0	0	0	04/05/22:18:03:34.779944	2391.593	0	0	guy	3	0.5	0	0	iti_startle
48	22	female	8	Probraum	2.5	20	2	gunmanbw	ex	black.PNG	60	0	0	0	0	04/05/22:18:03:34.796901	2391.609	0	0	guy	3	0.5	0	0	iti_startle
48	22	female	8	Probraum	2.5	20	2	gunmanbw	ex	black.PNG	60	0	0	0	0	04/05/22:18:03:34.812856	2391.625	0	0	guy	3	0.5	0	0	iti_startle
48	22	female	8	Probraum	2.5	20	2	gunmanbw	ex	black.PNG	60	0	0	0	0	04/05/22:18:03:34.829810	2391.64	0	0	guy	3	0.5	0	0	iti_startle
48	22	female	8	Probraum	2.5	20	2	gunmanbw	ex	black.PNG	60	0	0	0	0	04/05/22:18:03:34.846765	2391.656	0	0	guy	3	0.5	0	0	iti_startle
48	22	female	8	Probraum	2.5	20	2	gunmanbw	ex	black.PNG	60	0	0	0	0	04/05/22:18:03:34.863719	2391.671	0	0	guy	3	0.5	0	0	iti_startle
48	22	female	8	Probraum	2.5	20	2	gunmanbw	ex	black.PNG	60	0	0	0	0	04/05/22:18:03:34.879677	2391.687	0	0	guy	3	0.5	0	0	iti_startle
48	22	female	8	Probraum	2.5	20	2	gunmanbw	ex	black.PNG	60	0	0	0	0	04/05/22:18:03:34.896631	2391.703	0	0	guy	3	0.5	0	0	iti_startle
48	22	female	8	Probraum	2.5	20	2	gunmanbw	ex	black.PNG	60	0	0	0	0	04/05/22:18:03:34.913588	2391.718	0	0	guy	3	0.5	0	0	iti_startle
48	22	female	8	Probraum	2.5	20	2	gunmanbw	ex	black.PNG	60	0	0	0	0	04/05/22:18:03:34.930543	2391.734	0	0	guy	3	0.5	0	0	iti_startle
48	22	female	8	Probraum	2.5	20	2	gunmanbw	ex	black.PNG	60	0	0	0	0	04/05/22:18:03:34.946498	2391.75	0	0	guy	3	0.5	0	0	iti_startle
48	22	female	8	Probraum	2.5	20	2	gunmanbw	ex	black.PNG	60	0	0	0	0	04/05/22:18:03:34.963453	2391.765	0	0	opp	3	0.5	0	0	iti_startle
48	22	female	8	Probraum	2.5	20	2	gunmanbw	ex	black.PNG	60	0	0	0	0	04/05/22:18:03:34.980410	2391.781	0	0	opp	3	0.5	0	0	iti_startle
48	22	female	8	Probraum	2.5	20	2	gunmanbw	ex	black.PNG	60	0	0	0	0	04/05/22:18:03:34.996366	2391.796	0	0	opp	3	0.5	0	0	iti_startle
48	22	female	8	Probraum	2.5	20	2	gunmanbw	ex	black.PNG	60	0	0	0	0	04/05/22:18:03:35.013320	2391.812	0	0	opp	3	0.5	0	0	iti_startle
48	22	female	8	Probraum	2.5	20	2	gunmanbw	ex	black.PNG	60	0	0	0	0	04/05/22:18:03:35.030275	2391.843	0	0	opp	3	0.5	0	0	iti_startle
48	22	female	8	Probraum	2.5	20	2	gunmanbw	ex	black.PNG	60	0	0	0	0	04/05/22:18:03:35.047231	2391.859	0	0	opp	3	0.5	0	0	iti_startle
48	22	female	8	Probraum	2.5	20	2	gunmanbw	ex	black.PNG	60	0	0	0	0	04/05/22:18:03:35.063188	2391.875	0	0	opp	3	0.5	0	0	iti_startle
48	22	female	8	Probraum	2.5	20	2	gunmanbw	ex	black.PNG	60	0	0	0	0	04/05/22:18:03:35.080141	2391.89	0	0	opp	3	0.5	0	0	iti_startle
48	22	female	8	Probraum	2.5	20	2	gunmanbw	ex	black.PNG	60	0	0	0	0	04/05/22:18:03:35.097098	2391.906	0	0	opp	3	0.5	0	0	iti_startle
48	22	female	8	Probraum	2.5	20	2	gunmanbw	ex	black.PNG	60	0	0	0	0	04/05/22:18:03:35.113053	2391.921	0	0	opp	3	0.5	0	0	iti_startle
48	22	female	8	Probraum	2.5	20	2	gunmanbw	ex	black.PNG	60	0	0	0	0	04/05/22:18:03:35.130008	2391.937	0	0	opp	3	0.5	0	0	iti_startle
48	22	female	8	Probraum	2.5	20	2	gunmanbw	ex	black.PNG	60	0	0	0	0	04/05/22:18:03:35.146964	2391.953	0	0	opp	3	0.5	0	0	iti_startle
48	22	female	8	Probraum	2.5	20	2	gunmanbw	ex	black.PNG	60	0	0	0	0	04/05/22:18:03:35.163919	2391.968	0	0	opp	3	0.5	0	0	iti_startle
48	22	female	8	Probraum	2.5	20	2	gunmanbw	ex	black.PNG	60	0	0	0	0	04/05/22:18:03:35.179875	2391.984	0	0	opp	3	0.5	0	0	iti_startle
48	22	female	8	Probraum	2.5	20	2	gunmanbw	ex	black.PNG	60	0	0	0	0	04/05/22:18:03:35.196829	2392.0	0	0	opp	3	0.5	0	0	iti_startle
48	22	female	8	Probraum	2.5	20	2	gunmanbw	ex	black.PNG	60	0	0	0	0	04/05/22:18:03:35.213786	2392.015	0	0	opp	3	0.5	0	0	iti_startle
48	22	female	8	Probraum	2.5	20	2	gunmanbw	ex	black.PNG	60	0	0	0	0	04/05/22:18:03:35.229742	2392.031	0	0	opp	3	0.5	0	0	iti_startle
48	22	female	8	Probraum	2.5	20	2	gunmanbw	ex	black.PNG	60	0	0	0	0	04/05/22:18:03:35.246696	2392.046	0	0	opp	3	0.5	0	0	iti_startle
48	22	female	8	Probraum	2.5	20	2	gunmanbw	ex	black.PNG	60	0	0	0	0	04/05/22:18:03:35.263653	2392.078	0	0	opp	3	0.5	0	0	iti_startle
48	22	female	8	Probraum	2.5	20	2	gunmanbw	ex	black.PNG	60	0	0	0	0	04/05/22:18:03:35.280605	2392.093	0	0	opp	3	0.5	0	0	iti_startle
48	22	female	8	Probraum	2.5	20	2	gunmanbw	ex	black.PNG	60	0	0	0	0	04/05/22:18:03:35.296563	2392.109	0	0	opp	3	0.5	0	0	iti_startle
48	22	female	8	Probraum	2.5	20	2	gunmanbw	ex	black.PNG	60	0	0	0	0	04/05/22:18:03:35.313517	2392.125	0	0	opp	3	0.5	0	0	iti_startle
48	22	female	8	Probraum	2.5	20	2	gunmanbw	ex	black.PNG	60	0	0	0	0	04/05/22:18:03:35.330474	2392.14	0	0	opp	3	0.5	0	0	iti_startle
48	22	female	8	Probraum	2.5	20	2	gunmanbw	ex	black.PNG	60	0	0	0	0	04/05/22:18:03:35.346429	2392.156	0	0	opp	3	0.5	0	0	iti_startle
48	22	female	8	Probraum	2.5	20	2	gunmanbw	ex	black.PNG	60	0	0	0	0	04/05/22:18:03:35.363384	2392.171	0	0	opp	3	0.5	0	0	iti_startle
48	22	female	8	Probraum	2.5	20	2	gunmanbw	ex	black.PNG	60	0	0	0	0	04/05/22:18:03:35.380341	2392.187	0	0	opp	3	0.5	0	0	iti_startle
48	22	female	8	Probraum	2.5	20	2	gunmanbw	ex	black.PNG	60	0	0	0	0	04/05/22:18:03:35.397295	2392.203	0	0	opp	3	0.5	0	0	iti_startle
48	22	female	8	Probraum	2.5	20	2	gunmanbw	ex	black.PNG	60	0	0	0	0	04/05/22:18:03:35.413252	2392.218	0	0	opp	3	0.5	0	0	iti_startle
48	22	female	8	Probraum	2.5	20	2	gunmanbw	ex	black.PNG	60	0	0	0	0	04/05/22:18:03:35.430206	2392.234	0	0	opp	3	0.5	0	0	iti_startle
48	22	female	8	Probraum	2.5	20	2	gunmanbw	ex	black.PNG	60	0	0	0	0	04/05/22:18:03:35.447162	2392.25	0	0	opp	3	0.5	0	0	iti_startle
48	22	female	8	Probraum	2.5	20	2	gunmanbw	ex	black.PNG	60	0	0	0	0	04/05/22:18:03:35.964852	2392.765	0	I	follow up	3	0.5	0	0	iti_startle
48	22	female	8	Probraum	2.5	20	2	gunmanbw	ex	black.PNG	60	0	0	0	0	04/05/22:18:03:35.964852	2392.765	0	I	follow up	3	0.5	0	0	iti_startle
48	22	female	8	Probraum	2.5	20	2	controlguy	ex	yellow.PNG	60	0	0	0	0	04/05/22:18:03:45.071894	2401.875	0	0	onset	3	0.5	0	0	iti_startle
48	22	female	8	Probraum	2.5	20	2	controlguy	ex	yellow.PNG	60	0	0	0	0	04/05/22:18:03:45.188582	2402.0	0	0	anticipation	3	0.5	0	0	iti_startle
48	22	female	8	Probraum	2.5	20	2	controlguy	ex	yellow.PNG	60	0	0	0	0	04/05/22:18:03:45.306267	2402.109	0	0	anticipation	3	0.5	0	0	iti_startle
48	22	female	8	Probraum	2.5	20	2	controlguy	ex	yellow.PNG	60	0	0	0	0	04/05/22:18:03:45.419963	2402.234	0	0	anticipation	3	0.5	0	0	iti_startle
48	22	female	8	Probraum	2.5	20	2	controlguy	ex	yellow.PNG	60	0	0	0	0	04/05/22:18:03:45.534657	2402.343	0	0	anticipation	3	0.5	0	0	iti_startle
48	22	female	8	Probraum	2.5	20	2	controlguy	ex	yellow.PNG	60	0	0	0	0	04/05/22:18:03:45.649350	2402.453	0	0	anticipation	3	0.5	0	0	iti_startle
48	22	female	8	Probraum	2.5	20	2	controlguy	ex	yellow.PNG	60	0	0	0	0	04/05/22:18:03:45.763046	2402.562	0	0	anticipation	3	0.5	0	0	iti_startle
48	22	female	8	Probraum	2.5	20	2	controlguy	ex	yellow.PNG	60	0	0	0	0	04/05/22:18:03:45.876742	2402.687	0	0	anticipation	3	0.5	0	0	iti_startle
48	22	female	8	Probraum	2.5	20	2	controlguy	ex	yellow.PNG	60	0	0	0	0	04/05/22:18:03:45.991435	2402.796	0	0	anticipation	3	0.5	0	0	iti_startle
48	22	female	8	Probraum	2.5	20	2	controlguy	ex	yellow.PNG	60	0	0	0	0	04/05/22:18:03:46.105132	2402.906	0	0	anticipation	3	0.5	0	0	iti_startle
48	22	female	8	Probraum	2.5	20	2	controlguy	ex	yellow.PNG	60	0	0	0	0	04/05/22:18:03:46.219825	2403.031	0	0	anticipation	3	0.5	0	0	iti_startle
48	22	female	8	Probraum	2.5	20	2	controlguy	ex	yellow.PNG	60	0	0	0	0	04/05/22:18:03:46.333521	2403.14	0	0	anticipation	3	0.5	0	0	iti_startle
48	22	female	8	Probraum	2.5	20	2	controlguy	ex	yellow.PNG	60	0	0	0	0	04/05/22:18:03:46.447217	2403.25	0	0	anticipation	3	0.5	0	0	iti_startle
48	22	female	8	Probraum	2.5	20	2	controlguy	ex	yellow.PNG	60	0	0	0	0	04/05/22:18:03:46.560913	2403.375	0	0	anticipation	3	0.5	0	0	iti_startle
48	22	female	8	Probraum	2.5	20	2	controlguy	ex	yellow.PNG	60	0	0	0	0	04/05/22:18:03:46.676604	2403.484	0	0	anticipation	3	0.5	0	0	iti_startle
48	22	female	8	Probraum	2.5	20	2	controlguy	ex	yellow.PNG	60	0	0	0	0	04/05/22:18:03:46.790300	2403.593	0	0	anticipation	3	0.5	0	0	iti_startle
48	22	female	8	Probraum	2.5	20	2	controlguy	ex	yellow.PNG	60	0	0	0	0	04/05/22:18:03:46.904993	2403.718	0	0	anticipation	3	0.5	0	0	iti_startle
48	22	female	8	Probraum	2.5	20	2	controlguy	ex	yellow.PNG	60	0	0	0	0	04/05/22:18:03:47.019686	2403.828	0	0	anticipation	3	0.5	0	0	iti_startle
48	22	female	8	Probraum	2.5	20	2	controlguy	ex	yellow.PNG	60	0	0	0	0	04/05/22:18:03:47.134380	2403.937	0	0	anticipation	3	0.5	0	0	iti_startle
48	22	female	8	Probraum	2.5	20	2	controlguy	ex	yellow.PNG	60	0	0	0	0	04/05/22:18:03:47.255058	2404.062	0	0	anticipation	3	0.5	0	0	iti_startle
48	22	female	8	Probraum	2.5	20	2	controlguy	ex	yellow.PNG	60	0	0	0	0	04/05/22:18:03:47.369752	2404.171	0	0	anticipation	3	0.5	0	0	iti_startle
48	22	female	8	Probraum	2.5	20	2	controlguy	ex	yellow.PNG	60	0	0	0	0	04/05/22:18:03:47.484443	2404.296	0	0	anticipation	3	0.5	0	0	iti_startle
48	22	female	8	Probraum	2.5	20	2	controlguy	ex	yellow.PNG	60	0	0	0	0	04/05/22:18:03:47.604124	2404.406	0	0	anticipation	3	0.5	0	0	iti_startle
48	22	female	8	Probraum	2.5	20	2	controlguy	ex	yellow.PNG	60	0	0	0	0	04/05/22:18:03:47.718818	2404.531	0	0	anticipation	3	0.5	0	0	iti_startle
48	22	female	8	Probraum	2.5	20	2	controlguy	ex	yellow.PNG	60	0	0	0	0	04/05/22:18:03:47.833510	2404.64	0	0	anticipation	3	0.5	0	0	iti_startle
48	22	female	8	Probraum	2.5	20	2	controlguy	ex	yellow.PNG	60	0	0	0	0	04/05/22:18:03:47.947206	2404.75	0	0	anticipation	3	0.5	0	0	iti_startle
48	22	female	8	Probraum	2.5	20	2	controlguy	ex	yellow.PNG	60	0	0	0	0	04/05/22:18:03:48.063895	2404.875	0	0	anticipation	3	0.5	0	0	iti_startle
48	22	female	8	Probraum	2.5	20	2	controlguy	ex	yellow.PNG	60	0	0	0	0	04/05/22:18:03:48.178587	2404.984	0	0	anticipation	3	0.5	0	0	iti_startle
48	22	female	8	Probraum	2.5	20	2	controlguy	ex	yellow.PNG	60	0	0	0	0	04/05/22:18:03:48.292284	2405.093	0	0	anticipation	3	0.5	0	0	iti_startle
48	22	female	8	Probraum	2.5	20	2	controlguy	ex	yellow.PNG	60	0	0	0	0	04/05/22:18:03:48.406977	2405.218	0	0	anticipation	3	0.5	0	0	iti_startle
48	22	female	8	Probraum	2.5	20	2	controlguy	ex	yellow.PNG	60	0	0	0	0	04/05/22:18:03:48.521671	2405.328	0	0	anticipation	3	0.5	0	0	iti_startle
48	22	female	8	Probraum	2.5	20	2	controlguy	ex	yellow.PNG	60	0	0	0	0	04/05/22:18:03:48.635366	2405.437	0	0	anticipation	3	0.5	0	0	iti_startle
48	22	female	8	Probraum	2.5	20	2	controlguy	ex	yellow.PNG	60	0	0	0	0	04/05/22:18:03:48.749062	2405.562	0	0	anticipation	3	0.5	0	0	iti_startle
48	22	female	8	Probraum	2.5	20	2	controlguy	ex	yellow.PNG	60	0	0	0	0	04/05/22:18:03:48.862758	2405.671	0	0	anticipation	3	0.5	0	0	iti_startle
48	22	female	8	Probraum	2.5	20	2	controlguy	ex	yellow.PNG	60	0	0	0	0	04/05/22:18:03:48.977452	2405.781	0	0	anticipation	3	0.5	0	0	iti_startle
48	22	female	8	Probraum	2.5	20	2	controlguy	ex	yellow.PNG	60	0	0	0	0	04/05/22:18:03:49.091148	2405.89	0	0	anticipation	3	0.5	0	0	iti_startle
48	22	female	8	Probraum	2.5	20	2	controlguy	ex	yellow.PNG	60	0	0	0	0	04/05/22:18:03:49.205841	2406.015	0	0	anticipation	3	0.5	0	0	iti_startle
48	22	female	8	Probraum	2.5	20	2	controlguy	ex	yellow.PNG	60	0	0	0	0	04/05/22:18:03:49.320535	2406.125	0	0	anticipation	3	0.5	0	0	iti_startle
48	22	female	8	Probraum	2.5	20	2	controlguy	ex	yellow.PNG	60	0	0	0	0	04/05/22:18:03:49.435227	2406.234	0	0	anticipation	3	0.5	0	0	iti_startle
48	22	female	8	Probraum	2.5	20	2	controlguy	ex	yellow.PNG	60	0	0	0	0	04/05/22:18:03:49.549921	2406.359	0	0	anticipation	3	0.5	0	0	iti_startle
48	22	female	8	Probraum	2.5	20	2	controlguy	ex	yellow.PNG	60	0	0	0	0	04/05/22:18:03:49.664615	2406.468	0	0	anticipation	3	0.5	0	0	iti_startle
48	22	female	8	Probraum	2.5	20	2	controlguy	ex	yellow.PNG	60	0	0	0	0	04/05/22:18:03:49.777313	2406.578	0	0	anticipation	3	0.5	0	0	iti_startle
48	22	female	8	Probraum	2.5	20	2	controlguy	ex	yellow.PNG	60	0	0	0	0	04/05/22:18:03:49.891010	2406.703	0	0	anticipation	3	0.5	0	0	iti_startle
48	22	female	8	Probraum	2.5	20	2	controlguy	ex	yellow.PNG	60	0	0	0	0	04/05/22:18:03:50.006700	2406.812	0	0	anticipation	3	0.5	0	0	iti_startle
48	22	female	8	Probraum	2.5	20	2	controlguy	ex	yellow.PNG	60	0	0	0	0	04/05/22:18:03:50.120396	2406.921	0	0	anticipation	3	0.5	0	0	iti_startle
48	22	female	8	Probraum	2.5	20	2	controlguy	ex	yellow.PNG	60	0	0	0	0	04/05/22:18:03:50.234092	2407.046	0	0	anticipation	3	0.5	0	0	iti_startle
48	22	female	8	Probraum	2.5	20	2	controlguy	ex	yellow.PNG	60	0	0	0	0	04/05/22:18:03:50.349782	2407.156	0	0	anticipation	3	0.5	0	0	iti_startle
48	22	female	8	Probraum	2.5	20	2	controlguy	ex	yellow.PNG	60	0	0	0	0	04/05/22:18:03:50.464476	2407.265	0	0	anticipation	3	0.5	0	0	iti_startle
48	22	female	8	Probraum	2.5	20	2	controlguy	ex	yellow.PNG	60	0	0	0	0	04/05/22:18:03:50.579169	2407.39	0	0	anticipation	3	0.5	0	0	iti_startle
48	22	female	8	Probraum	2.5	20	2	controlguy	ex	yellow.PNG	60	0	0	0	0	04/05/22:18:03:50.691868	2407.5	0	0	anticipation	3	0.5	0	0	iti_startle
48	22	female	8	Probraum	2.5	20	2	controlguy	ex	yellow.PNG	60	0	0	0	0	04/05/22:18:03:50.806561	2407.609	0	0	anticipation	3	0.5	0	0	iti_startle
48	22	female	8	Probraum	2.5	20	2	controlguy	ex	yellow.PNG	60	0	0	0	0	04/05/22:18:03:50.921252	2407.734	0	0	anticipation	3	0.5	0	0	iti_startle
48	22	female	8	Probraum	2.5	20	2	controlguy	ex	yellow.PNG	60	0	0	0	0	04/05/22:18:03:51.035948	2407.843	0	0	anticipation	3	0.5	0	0	iti_startle
48	22	female	8	Probraum	2.5	20	2	controlguy	ex	yellow.PNG	60	0	0	0	0	04/05/22:18:03:51.150641	2407.953	0	0	anticipation	3	0.5	0	0	iti_startle
48	22	female	8	Probraum	2.5	20	2	controlguy	ex	yellow.PNG	60	0	0	0	0	04/05/22:18:03:51.264338	2408.078	0	0	anticipation	3	0.5	0	0	iti_startle
48	22	female	8	Probraum	2.5	20	2	controlguy	ex	yellow.PNG	60	0	0	0	0	04/05/22:18:03:51.280295	2408.093	0	0	guy	3	0.5	0	0	iti_startle
48	22	female	8	Probraum	2.5	20	2	controlguy	ex	yellow.PNG	60	0	0	0	0	04/05/22:18:03:51.297249	2408.109	0	0	guy	3	0.5	0	0	iti_startle
48	22	female	8	Probraum	2.5	20	2	controlguy	ex	yellow.PNG	60	0	0	0	0	04/05/22:18:03:51.313206	2408.125	0	0	guy	3	0.5	0	0	iti_startle
48	22	female	8	Probraum	2.5	20	2	controlguy	ex	yellow.PNG	60	0	0	0	0	04/05/22:18:03:51.330161	2408.14	0	0	guy	3	0.5	0	0	iti_startle
48	22	female	8	Probraum	2.5	20	2	controlguy	ex	yellow.PNG	60	0	0	0	0	04/05/22:18:03:51.347116	2408.156	0	0	guy	3	0.5	0	0	iti_startle
48	22	female	8	Probraum	2.5	20	2	controlguy	ex	yellow.PNG	60	0	0	0	0	04/05/22:18:03:51.364070	2408.171	0	0	guy	3	0.5	0	0	iti_startle
48	22	female	8	Probraum	2.5	20	2	controlguy	ex	yellow.PNG	60	0	0	0	0	04/05/22:18:03:51.380028	2408.187	0	0	guy	3	0.5	0	0	iti_startle
48	22	female	8	Probraum	2.5	20	2	controlguy	ex	yellow.PNG	60	0	0	0	0	04/05/22:18:03:51.397214	2408.203	0	0	guy	3	0.5	0	0	iti_startle
48	22	female	8	Probraum	2.5	20	2	controlguy	ex	yellow.PNG	60	0	0	0	0	04/05/22:18:03:51.413939	2408.218	0	0	guy	3	0.5	0	0	iti_startle
48	22	female	8	Probraum	2.5	20	2	controlguy	ex	yellow.PNG	60	0	0	0	0	04/05/22:18:03:51.429895	2408.234	0	0	guy	3	0.5	0	0	iti_startle
48	22	female	8	Probraum	2.5	20	2	controlguy	ex	yellow.PNG	60	0	0	0	0	04/05/22:18:03:51.446849	2408.25	0	0	guy	3	0.5	0	0	iti_startle
48	22	female	8	Probraum	2.5	20	2	controlguy	ex	yellow.PNG	60	0	0	0	0	04/05/22:18:03:51.463805	2408.265	0	0	guy	3	0.5	0	0	iti_startle
48	22	female	8	Probraum	2.5	20	2	controlguy	ex	yellow.PNG	60	0	0	0	0	04/05/22:18:03:51.480758	2408.281	0	0	guy	3	0.5	0	0	iti_startle
48	22	female	8	Probraum	2.5	20	2	controlguy	ex	yellow.PNG	60	0	0	0	0	04/05/22:18:03:51.496716	2408.296	0	0	guy	3	0.5	0	0	iti_startle
48	22	female	8	Probraum	2.5	20	2	controlguy	ex	yellow.PNG	60	0	0	0	0	04/05/22:18:03:51.513671	2408.328	0	0	guy	3	0.5	0	0	iti_startle
48	22	female	8	Probraum	2.5	20	2	controlguy	ex	yellow.PNG	60	0	0	0	0	04/05/22:18:03:51.530626	2408.343	0	0	guy	3	0.5	0	0	iti_startle
48	22	female	8	Probraum	2.5	20	2	controlguy	ex	yellow.PNG	60	0	0	0	0	04/05/22:18:03:51.546582	2408.359	0	0	guy	3	0.5	0	0	iti_startle
48	22	female	8	Probraum	2.5	20	2	controlguy	ex	yellow.PNG	60	0	0	0	0	04/05/22:18:03:51.563537	2408.375	0	0	guy	3	0.5	0	0	iti_startle
48	22	female	8	Probraum	2.5	20	2	controlguy	ex	yellow.PNG	60	0	0	0	0	04/05/22:18:03:51.580492	2408.39	0	0	guy	3	0.5	0	0	iti_startle
48	22	female	8	Probraum	2.5	20	2	controlguy	ex	yellow.PNG	60	0	0	0	0	04/05/22:18:03:51.596449	2408.406	0	0	guy	3	0.5	0	0	iti_startle
48	22	female	8	Probraum	2.5	20	2	controlguy	ex	yellow.PNG	60	0	0	0	0	04/05/22:18:03:51.613404	2408.421	0	0	guy	3	0.5	0	0	iti_startle
48	22	female	8	Probraum	2.5	20	2	controlguy	ex	yellow.PNG	60	0	0	0	0	04/05/22:18:03:51.630359	2408.437	0	0	guy	3	0.5	0	0	iti_startle
48	22	female	8	Probraum	2.5	20	2	controlguy	ex	yellow.PNG	60	0	0	0	0	04/05/22:18:03:51.647313	2408.453	0	0	guy	3	0.5	0	0	iti_startle
48	22	female	8	Probraum	2.5	20	2	controlguy	ex	yellow.PNG	60	0	0	0	0	04/05/22:18:03:51.663270	2408.468	0	0	guy	3	0.5	0	0	iti_startle
48	22	female	8	Probraum	2.5	20	2	controlguy	ex	yellow.PNG	60	0	0	0	0	04/05/22:18:03:51.679228	2408.484	0	0	guy	3	0.5	0	0	iti_startle
48	22	female	8	Probraum	2.5	20	2	controlguy	ex	yellow.PNG	60	0	0	0	0	04/05/22:18:03:51.696181	2408.5	0	0	guy	3	0.5	0	0	iti_startle
48	22	female	8	Probraum	2.5	20	2	controlguy	ex	yellow.PNG	60	0	0	0	0	04/05/22:18:03:51.713137	2408.515	0	0	guy	3	0.5	0	0	iti_startle
48	22	female	8	Probraum	2.5	20	2	controlguy	ex	yellow.PNG	60	0	0	0	0	04/05/22:18:03:51.730092	2408.531	0	0	guy	3	0.5	0	0	iti_startle
48	22	female	8	Probraum	2.5	20	2	controlguy	ex	yellow.PNG	60	0	0	0	0	04/05/22:18:03:51.747101	2408.546	0	0	guy	3	0.5	0	0	iti_startle
48	22	female	8	Probraum	2.5	20	2	controlguy	ex	yellow.PNG	60	0	0	0	0	04/05/22:18:03:51.763059	2408.562	0	0	guy	3	0.5	0	0	iti_startle
48	22	female	8	Probraum	2.5	20	2	controlguy	ex	yellow.PNG	60	0	0	0	0	04/05/22:18:03:51.780013	2408.593	0	0	guy	3	0.5	0	0	iti_startle
48	22	female	8	Probraum	2.5	20	2	controlguy	ex	yellow.PNG	60	0	0	0	0	04/05/22:18:03:51.796968	2408.609	0	0	guy	3	0.5	0	0	iti_startle
48	22	female	8	Probraum	2.5	20	2	controlguy	ex	yellow.PNG	60	0	0	0	0	04/05/22:18:03:51.813922	2408.625	0	0	guy	3	0.5	0	0	iti_startle
48	22	female	8	Probraum	2.5	20	2	controlguy	ex	yellow.PNG	60	0	0	0	0	04/05/22:18:03:51.829880	2408.64	0	0	guy	3	0.5	0	0	iti_startle
48	22	female	8	Probraum	2.5	20	2	controlguy	ex	yellow.PNG	60	0	0	0	0	04/05/22:18:03:51.846835	2408.656	0	0	guy	3	0.5	0	0	iti_startle
48	22	female	8	Probraum	2.5	20	2	controlguy	ex	yellow.PNG	60	0	0	0	0	04/05/22:18:03:51.863789	2408.671	0	0	guy	3	0.5	0	0	iti_startle
48	22	female	8	Probraum	2.5	20	2	controlguy	ex	yellow.PNG	60	0	0	0	0	04/05/22:18:03:51.879746	2408.687	0	0	guy	3	0.5	0	0	iti_startle
48	22	female	8	Probraum	2.5	20	2	controlguy	ex	yellow.PNG	60	0	0	0	0	04/05/22:18:03:51.896702	2408.703	0	0	guy	3	0.5	0	0	iti_startle
48	22	female	8	Probraum	2.5	20	2	controlguy	ex	yellow.PNG	60	0	0	0	0	04/05/22:18:03:51.913656	2408.718	0	0	guy	3	0.5	0	0	iti_startle
48	22	female	8	Probraum	2.5	20	2	controlguy	ex	yellow.PNG	60	0	0	0	0	04/05/22:18:03:51.930609	2408.734	0	0	guy	3	0.5	0	0	iti_startle
48	22	female	8	Probraum	2.5	20	2	controlguy	ex	yellow.PNG	60	0	0	0	0	04/05/22:18:03:51.946568	2408.75	0	0	guy	3	0.5	0	0	iti_startle
48	22	female	8	Probraum	2.5	20	2	controlguy	ex	yellow.PNG	60	0	0	0	0	04/05/22:18:03:51.963523	2408.765	0	0	guy	3	0.5	0	0	iti_startle
48	22	female	8	Probraum	2.5	20	2	controlguy	ex	yellow.PNG	60	0	0	0	0	04/05/22:18:03:51.980476	2408.781	0	0	guy	3	0.5	0	0	iti_startle
48	22	female	8	Probraum	2.5	20	2	controlguy	ex	yellow.PNG	60	0	0	0	0	04/05/22:18:03:51.997431	2408.796	0	0	guy	3	0.5	0	0	iti_startle
48	22	female	8	Probraum	2.5	20	2	controlguy	ex	yellow.PNG	60	0	0	0	0	04/05/22:18:03:52.013389	2408.812	0	0	guy	3	0.5	0	0	iti_startle
48	22	female	8	Probraum	2.5	20	2	controlguy	ex	yellow.PNG	60	0	0	0	0	04/05/22:18:03:52.030344	2408.843	0	0	guy	3	0.5	0	0	iti_startle
48	22	female	8	Probraum	2.5	20	2	controlguy	ex	yellow.PNG	60	0	0	0	0	04/05/22:18:03:52.047298	2408.859	0	0	guy	3	0.5	0	0	iti_startle
48	22	female	8	Probraum	2.5	20	2	controlguy	ex	yellow.PNG	60	0	0	0	0	04/05/22:18:03:52.063256	2408.875	0	0	guy	3	0.5	0	0	iti_startle
48	22	female	8	Probraum	2.5	20	2	controlguy	ex	yellow.PNG	60	0	0	0	0	04/05/22:18:03:52.080211	2408.89	0	0	guy	3	0.5	0	0	iti_startle
48	22	female	8	Probraum	2.5	20	2	controlguy	ex	yellow.PNG	60	0	0	0	0	04/05/22:18:03:52.097165	2408.906	0	0	guy	3	0.5	0	0	iti_startle
48	22	female	8	Probraum	2.5	20	2	controlguy	ex	yellow.PNG	60	0	0	0	0	04/05/22:18:03:52.113128	2408.921	0	0	guy	3	0.5	0	0	iti_startle
48	22	female	8	Probraum	2.5	20	2	controlguy	ex	yellow.PNG	60	0	0	0	0	04/05/22:18:03:52.130086	2408.937	0	0	guy	3	0.5	0	0	iti_startle
48	22	female	8	Probraum	2.5	20	2	controlguy	ex	yellow.PNG	60	0	0	0	0	04/05/22:18:03:52.147038	2408.953	0	0	guy	3	0.5	0	0	iti_startle
48	22	female	8	Probraum	2.5	20	2	controlguy	ex	yellow.PNG	60	0	0	0	0	04/05/22:18:03:52.163992	2408.968	0	0	guy	3	0.5	0	0	iti_startle
48	22	female	8	Probraum	2.5	20	2	controlguy	ex	yellow.PNG	60	0	0	0	0	04/05/22:18:03:52.179949	2408.984	0	0	guy	3	0.5	0	0	iti_startle
48	22	female	8	Probraum	2.5	20	2	controlguy	ex	yellow.PNG	60	0	0	0	0	04/05/22:18:03:52.196903	2409.0	0	0	opp	3	0.5	0	0	iti_startle
48	22	female	8	Probraum	2.5	20	2	controlguy	ex	yellow.PNG	60	0	0	0	0	04/05/22:18:03:52.213858	2409.015	0	0	opp	3	0.5	0	0	iti_startle
48	22	female	8	Probraum	2.5	20	2	controlguy	ex	yellow.PNG	60	0	0	0	0	04/05/22:18:03:52.229817	2409.031	0	0	opp	3	0.5	0	0	iti_startle
48	22	female	8	Probraum	2.5	20	2	controlguy	ex	yellow.PNG	60	0	0	0	0	04/05/22:18:03:52.246773	2409.046	0	0	opp	3	0.5	0	0	iti_startle
48	22	female	8	Probraum	2.5	20	2	controlguy	ex	yellow.PNG	60	0	0	0	0	04/05/22:18:03:52.263728	2409.078	0	0	opp	3	0.5	0	0	iti_startle
48	22	female	8	Probraum	2.5	20	2	controlguy	ex	yellow.PNG	60	0	0	0	0	04/05/22:18:03:52.280682	2409.093	0	0	opp	3	0.5	0	0	iti_startle
48	22	female	8	Probraum	2.5	20	2	controlguy	ex	yellow.PNG	60	0	0	0	0	04/05/22:18:03:52.296640	2409.109	0	0	opp	3	0.5	0	0	iti_startle
48	22	female	8	Probraum	2.5	20	2	controlguy	ex	yellow.PNG	60	0	0	0	0	04/05/22:18:03:52.313596	2409.125	0	0	opp	3	0.5	0	0	iti_startle
48	22	female	8	Probraum	2.5	20	2	controlguy	ex	yellow.PNG	60	0	0	0	0	04/05/22:18:03:52.330548	2409.14	0	0	opp	3	0.5	0	0	iti_startle
48	22	female	8	Probraum	2.5	20	2	controlguy	ex	yellow.PNG	60	0	0	0	0	04/05/22:18:03:52.346507	2409.156	0	0	opp	3	0.5	0	0	iti_startle
48	22	female	8	Probraum	2.5	20	2	controlguy	ex	yellow.PNG	60	0	0	0	0	04/05/22:18:03:52.363462	2409.171	0	0	opp	3	0.5	0	0	iti_startle
48	22	female	8	Probraum	2.5	20	2	controlguy	ex	yellow.PNG	60	0	0	0	0	04/05/22:18:03:52.380475	2409.187	0	0	opp	3	0.5	0	0	iti_startle
48	22	female	8	Probraum	2.5	20	2	controlguy	ex	yellow.PNG	60	0	0	0	0	04/05/22:18:03:52.397430	2409.203	0	0	opp	3	0.5	0	0	iti_startle
48	22	female	8	Probraum	2.5	20	2	controlguy	ex	yellow.PNG	60	0	0	0	0	04/05/22:18:03:52.413387	2409.218	0	0	opp	3	0.5	0	0	iti_startle
48	22	female	8	Probraum	2.5	20	2	controlguy	ex	yellow.PNG	60	0	0	0	0	04/05/22:18:03:52.430341	2409.234	0	0	opp	3	0.5	0	0	iti_startle
48	22	female	8	Probraum	2.5	20	2	controlguy	ex	yellow.PNG	60	0	0	0	0	04/05/22:18:03:52.447296	2409.25	0	0	opp	3	0.5	0	0	iti_startle
48	22	female	8	Probraum	2.5	20	2	controlguy	ex	yellow.PNG	60	0	0	0	0	04/05/22:18:03:52.463253	2409.265	0	0	opp	3	0.5	0	0	iti_startle
48	22	female	8	Probraum	2.5	20	2	controlguy	ex	yellow.PNG	60	0	0	0	0	04/05/22:18:03:52.480208	2409.281	0	0	opp	3	0.5	0	0	iti_startle
48	22	female	8	Probraum	2.5	20	2	controlguy	ex	yellow.PNG	60	0	0	0	0	04/05/22:18:03:52.496577	2409.296	0	0	opp	3	0.5	0	0	iti_startle
48	22	female	8	Probraum	2.5	20	2	controlguy	ex	yellow.PNG	60	0	0	0	0	04/05/22:18:03:52.513534	2409.328	0	0	opp	3	0.5	0	0	iti_startle
48	22	female	8	Probraum	2.5	20	2	controlguy	ex	yellow.PNG	60	0	0	0	0	04/05/22:18:03:52.530488	2409.343	0	0	opp	3	0.5	0	0	iti_startle
48	22	female	8	Probraum	2.5	20	2	controlguy	ex	yellow.PNG	60	0	0	0	0	04/05/22:18:03:52.547443	2409.359	0	0	opp	3	0.5	0	0	iti_startle
48	22	female	8	Probraum	2.5	20	2	controlguy	ex	yellow.PNG	60	0	0	0	0	04/05/22:18:03:52.563405	2409.375	0	0	opp	3	0.5	0	0	iti_startle
48	22	female	8	Probraum	2.5	20	2	controlguy	ex	yellow.PNG	60	0	0	0	0	04/05/22:18:03:52.580355	2409.39	0	0	opp	3	0.5	0	0	iti_startle
48	22	female	8	Probraum	2.5	20	2	controlguy	ex	yellow.PNG	60	0	0	0	0	04/05/22:18:03:52.597310	2409.406	0	0	opp	3	0.5	0	0	iti_startle
48	22	female	8	Probraum	2.5	20	2	controlguy	ex	yellow.PNG	60	0	0	0	0	04/05/22:18:03:52.613267	2409.421	0	0	opp	3	0.5	0	0	iti_startle
48	22	female	8	Probraum	2.5	20	2	controlguy	ex	yellow.PNG	60	0	0	0	0	04/05/22:18:03:52.630230	2409.437	0	0	opp	3	0.5	0	0	iti_startle
48	22	female	8	Probraum	2.5	20	2	controlguy	ex	yellow.PNG	60	0	0	0	0	04/05/22:18:03:52.647183	2409.453	0	0	opp	3	0.5	0	0	iti_startle
48	22	female	8	Probraum	2.5	20	2	controlguy	ex	yellow.PNG	60	0	0	0	0	04/05/22:18:03:52.663141	2409.468	0	0	opp	3	0.5	0	0	iti_startle
48	22	female	8	Probraum	2.5	20	2	controlguy	ex	yellow.PNG	60	0	0	0	0	04/05/22:18:03:52.680096	2409.484	0	0	opp	3	0.5	0	0	iti_startle
48	22	female	8	Probraum	2.5	20	2	controlguy	ex	yellow.PNG	60	0	0	0	0	04/05/22:18:03:52.697050	2409.5	0	0	opp	3	0.5	0	0	iti_startle
48	22	female	8	Probraum	2.5	20	2	controlguy	ex	yellow.PNG	60	0	0	0	0	04/05/22:18:03:52.713008	2409.515	0	C	follow up	3	0.5	0	0	iti_startle
48	22	female	8	Probraum	2.5	20	2	controlguy	ex	yellow.PNG	60	0	0	0	0	04/05/22:18:03:52.713008	2409.515	0	C	follow up	3	0.5	0	0	iti_startle
48	22	female	8	Probraum	2.5	20	2	phonemancaro	ex	black.PNG	60	0	0	0	0	04/05/22:18:04:01.820846	2418.625	0	0	onset	3	0.5	0	0	iti_startle
48	22	female	8	Probraum	2.5	20	2	phonemancaro	ex	black.PNG	60	0	0	0	0	04/05/22:18:04:01.936537	2418.75	0	0	anticipation	3	0.5	0	0	iti_startle
48	22	female	8	Probraum	2.5	20	2	phonemancaro	ex	black.PNG	60	0	0	0	0	04/05/22:18:04:02.049236	2418.859	0	0	anticipation	3	0.5	0	0	iti_startle
48	22	female	8	Probraum	2.5	20	2	phonemancaro	ex	black.PNG	60	0	0	0	0	04/05/22:18:04:02.160935	2418.968	0	0	anticipation	3	0.5	0	0	iti_startle
48	22	female	8	Probraum	2.5	20	2	phonemancaro	ex	black.PNG	60	0	0	0	0	04/05/22:18:04:02.272638	2419.078	0	0	anticipation	3	0.5	0	0	iti_startle
48	22	female	8	Probraum	2.5	20	2	phonemancaro	ex	black.PNG	60	0	0	0	0	04/05/22:18:04:02.385337	2419.187	0	0	anticipation	3	0.5	0	0	iti_startle
48	22	female	8	Probraum	2.5	20	2	phonemancaro	ex	black.PNG	60	0	0	0	0	04/05/22:18:04:02.498036	2419.312	0	0	anticipation	3	0.5	0	0	iti_startle
48	22	female	8	Probraum	2.5	20	2	phonemancaro	ex	black.PNG	60	0	0	0	0	04/05/22:18:04:02.609737	2419.421	0	0	anticipation	3	0.5	0	0	iti_startle
48	22	female	8	Probraum	2.5	20	2	phonemancaro	ex	black.PNG	60	0	0	0	0	04/05/22:18:04:02.721436	2419.531	0	0	anticipation	3	0.5	0	0	iti_startle
48	22	female	8	Probraum	2.5	20	2	phonemancaro	ex	black.PNG	60	0	0	0	0	04/05/22:18:04:02.833140	2419.64	0	0	anticipation	3	0.5	0	0	iti_startle
48	22	female	8	Probraum	2.5	20	2	phonemancaro	ex	black.PNG	60	0	0	0	0	04/05/22:18:04:02.944841	2419.75	0	0	anticipation	3	0.5	0	0	iti_startle
48	22	female	8	Probraum	2.5	20	2	phonemancaro	ex	black.PNG	60	0	0	0	0	04/05/22:18:04:03.057540	2419.859	0	0	anticipation	3	0.5	0	0	iti_startle
48	22	female	8	Probraum	2.5	20	2	phonemancaro	ex	black.PNG	60	0	0	0	0	04/05/22:18:04:03.169241	2419.968	0	0	anticipation	3	0.5	0	0	iti_startle
48	22	female	8	Probraum	2.5	20	2	phonemancaro	ex	black.PNG	60	0	0	0	0	04/05/22:18:04:03.280942	2420.093	0	0	anticipation	3	0.5	0	0	iti_startle
48	22	female	8	Probraum	2.5	20	2	phonemancaro	ex	black.PNG	60	0	0	0	0	04/05/22:18:04:03.393638	2420.203	0	0	anticipation	3	0.5	0	0	iti_startle
48	22	female	8	Probraum	2.5	20	2	phonemancaro	ex	black.PNG	60	0	0	0	0	04/05/22:18:04:03.506340	2420.312	0	0	anticipation	3	0.5	0	0	iti_startle
48	22	female	8	Probraum	2.5	20	2	phonemancaro	ex	black.PNG	60	0	0	0	0	04/05/22:18:04:03.620036	2420.421	0	0	anticipation	3	0.5	0	0	iti_startle
48	22	female	8	Probraum	2.5	20	2	phonemancaro	ex	black.PNG	60	0	0	0	0	04/05/22:18:04:03.729742	2420.531	0	0	anticipation	3	0.5	0	0	iti_startle
48	22	female	8	Probraum	2.5	20	2	phonemancaro	ex	black.PNG	60	0	0	0	0	04/05/22:18:04:03.842441	2420.656	0	0	anticipation	3	0.5	0	0	iti_startle
48	22	female	8	Probraum	2.5	20	2	phonemancaro	ex	black.PNG	60	0	0	0	0	04/05/22:18:04:03.955140	2420.765	0	0	anticipation	3	0.5	0	0	iti_startle
48	22	female	8	Probraum	2.5	20	2	phonemancaro	ex	black.PNG	60	0	0	0	0	04/05/22:18:04:04.067838	2420.875	0	0	anticipation	3	0.5	0	0	iti_startle
48	22	female	8	Probraum	2.5	20	2	phonemancaro	ex	black.PNG	60	0	0	0	0	04/05/22:18:04:04.179540	2420.984	0	0	anticipation	3	0.5	0	0	iti_startle
48	22	female	8	Probraum	2.5	20	2	phonemancaro	ex	black.PNG	60	0	0	0	0	04/05/22:18:04:04.291241	2421.093	0	0	anticipation	3	0.5	0	0	iti_startle
48	22	female	8	Probraum	2.5	20	2	phonemancaro	ex	black.PNG	60	0	0	0	0	04/05/22:18:04:04.402942	2421.203	0	0	anticipation	3	0.5	0	0	iti_startle
48	22	female	8	Probraum	2.5	20	2	phonemancaro	ex	black.PNG	60	0	0	0	0	04/05/22:18:04:04.516638	2421.328	0	0	anticipation	3	0.5	0	0	iti_startle
48	22	female	8	Probraum	2.5	20	2	phonemancaro	ex	black.PNG	60	0	0	0	0	04/05/22:18:04:04.628340	2421.437	0	0	anticipation	3	0.5	0	0	iti_startle
48	22	female	8	Probraum	2.5	20	2	phonemancaro	ex	black.PNG	60	0	0	0	0	04/05/22:18:04:04.739044	2421.546	0	0	anticipation	3	0.5	0	0	iti_startle
48	22	female	8	Probraum	2.5	20	2	phonemancaro	ex	black.PNG	60	0	0	0	0	04/05/22:18:04:04.849749	2421.656	0	0	anticipation	3	0.5	0	0	iti_startle
48	22	female	8	Probraum	2.5	20	2	phonemancaro	ex	black.PNG	60	0	0	0	0	04/05/22:18:04:04.962447	2421.765	0	0	anticipation	3	0.5	0	0	iti_startle
48	22	female	8	Probraum	2.5	20	2	phonemancaro	ex	black.PNG	60	0	0	0	0	04/05/22:18:04:05.074148	2421.875	0	0	anticipation	3	0.5	0	0	iti_startle
48	22	female	8	Probraum	2.5	20	2	phonemancaro	ex	black.PNG	60	0	0	0	0	04/05/22:18:04:05.186847	2422.0	0	0	anticipation	3	0.5	0	0	iti_startle
48	22	female	8	Probraum	2.5	20	2	phonemancaro	ex	black.PNG	60	0	0	0	0	04/05/22:18:04:05.298548	2422.109	0	0	anticipation	3	0.5	0	0	iti_startle
48	22	female	8	Probraum	2.5	20	2	phonemancaro	ex	black.PNG	60	0	0	0	0	04/05/22:18:04:05.410249	2422.218	0	0	anticipation	3	0.5	0	0	iti_startle
48	22	female	8	Probraum	2.5	20	2	phonemancaro	ex	black.PNG	60	0	0	0	0	04/05/22:18:04:05.521950	2422.328	0	0	anticipation	3	0.5	0	0	iti_startle
48	22	female	8	Probraum	2.5	20	2	phonemancaro	ex	black.PNG	60	0	0	0	0	04/05/22:18:04:05.634649	2422.437	0	0	anticipation	3	0.5	0	0	iti_startle
48	22	female	8	Probraum	2.5	20	2	phonemancaro	ex	black.PNG	60	0	0	0	0	04/05/22:18:04:05.745353	2422.546	0	0	anticipation	3	0.5	0	0	iti_startle
48	22	female	8	Probraum	2.5	20	2	phonemancaro	ex	black.PNG	60	0	0	0	0	04/05/22:18:04:05.857055	2422.656	0	0	anticipation	3	0.5	0	0	iti_startle
48	22	female	8	Probraum	2.5	20	2	phonemancaro	ex	black.PNG	60	0	0	0	0	04/05/22:18:04:05.968756	2422.781	0	0	anticipation	3	0.5	0	0	iti_startle
48	22	female	8	Probraum	2.5	20	2	phonemancaro	ex	black.PNG	60	0	0	0	0	04/05/22:18:04:06.081454	2422.89	0	0	anticipation	3	0.5	0	0	iti_startle
48	22	female	8	Probraum	2.5	20	2	phonemancaro	ex	black.PNG	60	0	0	0	0	04/05/22:18:04:06.193156	2423.0	0	0	anticipation	3	0.5	0	0	iti_startle
48	22	female	8	Probraum	2.5	20	2	phonemancaro	ex	black.PNG	60	0	0	0	0	04/05/22:18:04:06.306852	2423.109	0	0	anticipation	3	0.5	0	0	iti_startle
48	22	female	8	Probraum	2.5	20	2	phonemancaro	ex	black.PNG	60	0	0	0	0	04/05/22:18:04:06.418553	2423.218	0	0	anticipation	3	0.5	0	0	iti_startle
48	22	female	8	Probraum	2.5	20	2	phonemancaro	ex	black.PNG	60	0	0	0	0	04/05/22:18:04:06.532249	2423.343	0	0	anticipation	3	0.5	0	0	iti_startle
48	22	female	8	Probraum	2.5	20	2	phonemancaro	ex	black.PNG	60	0	0	0	0	04/05/22:18:04:06.644948	2423.453	0	0	anticipation	3	0.5	0	0	iti_startle
48	22	female	8	Probraum	2.5	20	2	phonemancaro	ex	black.PNG	60	0	0	0	0	04/05/22:18:04:06.756649	2423.562	0	0	anticipation	3	0.5	0	0	iti_startle
48	22	female	8	Probraum	2.5	20	2	phonemancaro	ex	black.PNG	60	0	0	0	0	04/05/22:18:04:06.870345	2423.671	0	0	anticipation	3	0.5	0	0	iti_startle
48	22	female	8	Probraum	2.5	20	2	phonemancaro	ex	black.PNG	60	0	0	0	0	04/05/22:18:04:06.983044	2423.796	0	0	anticipation	3	0.5	0	0	iti_startle
48	22	female	8	Probraum	2.5	20	2	phonemancaro	ex	black.PNG	60	0	0	0	0	04/05/22:18:04:07.095742	2423.906	0	0	anticipation	3	0.5	0	0	iti_startle
48	22	female	8	Probraum	2.5	20	2	phonemancaro	ex	black.PNG	60	0	0	0	0	04/05/22:18:04:07.208441	2424.015	0	0	anticipation	3	0.5	0	0	iti_startle
48	22	female	8	Probraum	2.5	20	2	phonemancaro	ex	black.PNG	60	0	0	0	0	04/05/22:18:04:07.320143	2424.125	0	0	anticipation	3	0.5	0	0	iti_startle
48	22	female	8	Probraum	2.5	20	2	phonemancaro	ex	black.PNG	60	0	0	0	0	04/05/22:18:04:07.432842	2424.234	0	0	anticipation	3	0.5	0	0	iti_startle
48	22	female	8	Probraum	2.5	20	2	phonemancaro	ex	black.PNG	60	0	0	0	0	04/05/22:18:04:07.545540	2424.359	0	0	anticipation	3	0.5	0	0	iti_startle
48	22	female	8	Probraum	2.5	20	2	phonemancaro	ex	black.PNG	60	0	0	0	0	04/05/22:18:04:07.657242	2424.468	0	0	anticipation	3	0.5	0	0	iti_startle
48	22	female	8	Probraum	2.5	20	2	phonemancaro	ex	black.PNG	60	0	0	0	0	04/05/22:18:04:07.766948	2424.578	0	0	anticipation	3	0.5	0	0	iti_startle
48	22	female	8	Probraum	2.5	20	2	phonemancaro	ex	black.PNG	60	0	0	0	0	04/05/22:18:04:07.879647	2424.687	0	0	anticipation	3	0.5	0	0	iti_startle
48	22	female	8	Probraum	2.5	20	2	phonemancaro	ex	black.PNG	60	0	0	0	0	04/05/22:18:04:07.881641	2424.687	0	0	guy	3	0.5	0	0	iti_startle
48	22	female	8	Probraum	2.5	20	2	phonemancaro	ex	black.PNG	60	0	0	0	0	04/05/22:18:04:07.896601	2424.703	0	0	guy	3	0.5	0	0	iti_startle
48	22	female	8	Probraum	2.5	20	2	phonemancaro	ex	black.PNG	60	0	0	0	0	04/05/22:18:04:07.912558	2424.718	0	0	guy	3	0.5	0	0	iti_startle
48	22	female	8	Probraum	2.5	20	2	phonemancaro	ex	black.PNG	60	0	0	0	0	04/05/22:18:04:07.929513	2424.734	0	0	guy	3	0.5	0	0	iti_startle
48	22	female	8	Probraum	2.5	20	2	phonemancaro	ex	black.PNG	60	0	0	0	0	04/05/22:18:04:07.946468	2424.75	0	0	guy	3	0.5	0	0	iti_startle
48	22	female	8	Probraum	2.5	20	2	phonemancaro	ex	black.PNG	60	0	0	0	0	04/05/22:18:04:07.963423	2424.765	0	0	guy	3	0.5	0	0	iti_startle
48	22	female	8	Probraum	2.5	20	2	phonemancaro	ex	black.PNG	60	0	0	0	0	04/05/22:18:04:07.980731	2424.781	0	0	guy	3	0.5	0	0	iti_startle
48	22	female	8	Probraum	2.5	20	2	phonemancaro	ex	black.PNG	60	0	0	0	0	04/05/22:18:04:07.997332	2424.796	0	0	guy	3	0.5	0	0	iti_startle
48	22	female	8	Probraum	2.5	20	2	phonemancaro	ex	black.PNG	60	0	0	0	0	04/05/22:18:04:08.013289	2424.812	0	0	guy	3	0.5	0	0	iti_startle
48	22	female	8	Probraum	2.5	20	2	phonemancaro	ex	black.PNG	60	0	0	0	0	04/05/22:18:04:08.030244	2424.843	0	0	guy	3	0.5	0	0	iti_startle
48	22	female	8	Probraum	2.5	20	2	phonemancaro	ex	black.PNG	60	0	0	0	0	04/05/22:18:04:08.047554	2424.859	0	0	guy	3	0.5	0	0	iti_startle
48	22	female	8	Probraum	2.5	20	2	phonemancaro	ex	black.PNG	60	0	0	0	0	04/05/22:18:04:08.064153	2424.875	0	0	guy	3	0.5	0	0	iti_startle
48	22	female	8	Probraum	2.5	20	2	phonemancaro	ex	black.PNG	60	0	0	0	0	04/05/22:18:04:08.080111	2424.89	0	0	guy	3	0.5	0	0	iti_startle
48	22	female	8	Probraum	2.5	20	2	phonemancaro	ex	black.PNG	60	0	0	0	0	04/05/22:18:04:08.097065	2424.906	0	0	guy	3	0.5	0	0	iti_startle
48	22	female	8	Probraum	2.5	20	2	phonemancaro	ex	black.PNG	60	0	0	0	0	04/05/22:18:04:08.114020	2424.921	0	0	guy	3	0.5	0	0	iti_startle
48	22	female	8	Probraum	2.5	20	2	phonemancaro	ex	black.PNG	60	0	0	0	0	04/05/22:18:04:08.129978	2424.937	0	0	guy	3	0.5	0	0	iti_startle
48	22	female	8	Probraum	2.5	20	2	phonemancaro	ex	black.PNG	60	0	0	0	0	04/05/22:18:04:08.146934	2424.953	0	0	guy	3	0.5	0	0	iti_startle
48	22	female	8	Probraum	2.5	20	2	phonemancaro	ex	black.PNG	60	0	0	0	0	04/05/22:18:04:08.164242	2424.968	0	0	guy	3	0.5	0	0	iti_startle
48	22	female	8	Probraum	2.5	20	2	phonemancaro	ex	black.PNG	60	0	0	0	0	04/05/22:18:04:08.180841	2424.984	0	0	guy	3	0.5	0	0	iti_startle
48	22	female	8	Probraum	2.5	20	2	phonemancaro	ex	black.PNG	60	0	0	0	0	04/05/22:18:04:08.196799	2425.0	0	0	guy	3	0.5	0	0	iti_startle
48	22	female	8	Probraum	2.5	20	2	phonemancaro	ex	black.PNG	60	0	0	0	0	04/05/22:18:04:08.213753	2425.015	0	0	guy	3	0.5	0	0	iti_startle
48	22	female	8	Probraum	2.5	20	2	phonemancaro	ex	black.PNG	60	0	0	0	0	04/05/22:18:04:08.229711	2425.031	0	0	guy	3	0.5	0	0	iti_startle
48	22	female	8	Probraum	2.5	20	2	phonemancaro	ex	black.PNG	60	0	0	0	0	04/05/22:18:04:08.246666	2425.046	0	0	guy	3	0.5	0	0	iti_startle
48	22	female	8	Probraum	2.5	20	2	phonemancaro	ex	black.PNG	60	0	0	0	0	04/05/22:18:04:08.263618	2425.078	0	0	guy	3	0.5	0	0	iti_startle
48	22	female	8	Probraum	2.5	20	2	phonemancaro	ex	black.PNG	60	0	0	0	0	04/05/22:18:04:08.280572	2425.093	0	0	guy	3	0.5	0	0	iti_startle
48	22	female	8	Probraum	2.5	20	2	phonemancaro	ex	black.PNG	60	0	0	0	0	04/05/22:18:04:08.297529	2425.109	0	0	guy	3	0.5	0	0	iti_startle
48	22	female	8	Probraum	2.5	20	2	phonemancaro	ex	black.PNG	60	0	0	0	0	04/05/22:18:04:08.313487	2425.125	0	0	guy	3	0.5	0	0	iti_startle
48	22	female	8	Probraum	2.5	20	2	phonemancaro	ex	black.PNG	60	0	0	0	0	04/05/22:18:04:08.330794	2425.14	0	0	guy	3	0.5	0	0	iti_startle
48	22	female	8	Probraum	2.5	20	2	phonemancaro	ex	black.PNG	60	0	0	0	0	04/05/22:18:04:08.347396	2425.156	0	0	guy	3	0.5	0	0	iti_startle
48	22	female	8	Probraum	2.5	20	2	phonemancaro	ex	black.PNG	60	0	0	0	0	04/05/22:18:04:08.363353	2425.171	0	0	guy	3	0.5	0	0	iti_startle
48	22	female	8	Probraum	2.5	20	2	phonemancaro	ex	black.PNG	60	0	0	0	0	04/05/22:18:04:08.380308	2425.187	0	0	guy	3	0.5	0	0	iti_startle
48	22	female	8	Probraum	2.5	20	2	phonemancaro	ex	black.PNG	60	0	0	0	0	04/05/22:18:04:08.397263	2425.203	0	0	guy	3	0.5	0	0	iti_startle
48	22	female	8	Probraum	2.5	20	2	phonemancaro	ex	black.PNG	60	0	0	0	0	04/05/22:18:04:08.413220	2425.218	0	0	guy	3	0.5	0	0	iti_startle
48	22	female	8	Probraum	2.5	20	2	phonemancaro	ex	black.PNG	60	0	0	0	0	04/05/22:18:04:08.430174	2425.234	0	0	guy	3	0.5	0	0	iti_startle
48	22	female	8	Probraum	2.5	20	2	phonemancaro	ex	black.PNG	60	0	0	0	0	04/05/22:18:04:08.447132	2425.25	0	0	guy	3	0.5	0	0	iti_startle
48	22	female	8	Probraum	2.5	20	2	phonemancaro	ex	black.PNG	60	0	0	0	0	04/05/22:18:04:08.464084	2425.265	0	0	guy	3	0.5	0	0	iti_startle
48	22	female	8	Probraum	2.5	20	2	phonemancaro	ex	black.PNG	60	0	0	0	0	04/05/22:18:04:08.480041	2425.281	0	0	guy	3	0.5	0	0	iti_startle
48	22	female	8	Probraum	2.5	20	2	phonemancaro	ex	black.PNG	60	0	0	0	0	04/05/22:18:04:08.496996	2425.296	0	0	guy	3	0.5	0	0	iti_startle
48	22	female	8	Probraum	2.5	20	2	phonemancaro	ex	black.PNG	60	0	0	0	0	04/05/22:18:04:08.513952	2425.328	0	0	guy	3	0.5	0	0	iti_startle
48	22	female	8	Probraum	2.5	20	2	phonemancaro	ex	black.PNG	60	0	0	0	0	04/05/22:18:04:08.530912	2425.343	0	0	guy	3	0.5	0	0	iti_startle
48	22	female	8	Probraum	2.5	20	2	phonemancaro	ex	black.PNG	60	0	0	0	0	04/05/22:18:04:08.546863	2425.359	0	0	guy	3	0.5	0	0	iti_startle
48	22	female	8	Probraum	2.5	20	2	phonemancaro	ex	black.PNG	60	0	0	0	0	04/05/22:18:04:08.564214	2425.375	0	0	guy	3	0.5	0	0	iti_startle
48	22	female	8	Probraum	2.5	20	2	phonemancaro	ex	black.PNG	60	0	0	0	0	04/05/22:18:04:08.580773	2425.39	0	0	guy	3	0.5	0	0	iti_startle
48	22	female	8	Probraum	2.5	20	2	phonemancaro	ex	black.PNG	60	0	0	0	0	04/05/22:18:04:08.596730	2425.406	0	0	guy	3	0.5	0	0	iti_startle
48	22	female	8	Probraum	2.5	20	2	phonemancaro	ex	black.PNG	60	0	0	0	0	04/05/22:18:04:08.613684	2425.421	0	0	guy	3	0.5	0	0	iti_startle
48	22	female	8	Probraum	2.5	20	2	phonemancaro	ex	black.PNG	60	0	0	0	0	04/05/22:18:04:08.630639	2425.437	0	0	guy	3	0.5	0	0	iti_startle
48	22	female	8	Probraum	2.5	20	2	phonemancaro	ex	black.PNG	60	0	0	0	0	04/05/22:18:04:08.646596	2425.453	0	0	guy	3	0.5	0	0	iti_startle
48	22	female	8	Probraum	2.5	20	2	phonemancaro	ex	black.PNG	60	0	0	0	0	04/05/22:18:04:08.663550	2425.468	0	0	guy	3	0.5	0	0	iti_startle
48	22	female	8	Probraum	2.5	20	2	phonemancaro	ex	black.PNG	60	0	0	0	0	04/05/22:18:04:08.680505	2425.484	0	0	guy	3	0.5	0	0	iti_startle
48	22	female	8	Probraum	2.5	20	2	phonemancaro	ex	black.PNG	60	0	0	0	0	04/05/22:18:04:08.696462	2425.5	0	0	guy	3	0.5	0	0	iti_startle
48	22	female	8	Probraum	2.5	20	2	phonemancaro	ex	black.PNG	60	0	0	0	0	04/05/22:18:04:08.713417	2425.515	0	0	guy	3	0.5	0	0	iti_startle
48	22	female	8	Probraum	2.5	20	2	phonemancaro	ex	black.PNG	60	0	0	0	0	04/05/22:18:04:08.730372	2425.531	0	0	guy	3	0.5	0	0	iti_startle
48	22	female	8	Probraum	2.5	20	2	phonemancaro	ex	black.PNG	60	0	0	0	0	04/05/22:18:04:08.746329	2425.546	0	0	guy	3	0.5	0	0	iti_startle
48	22	female	8	Probraum	2.5	20	2	phonemancaro	ex	black.PNG	60	0	0	0	0	04/05/22:18:04:08.763285	2425.562	0	0	guy	3	0.5	0	0	iti_startle
48	22	female	8	Probraum	2.5	20	2	phonemancaro	ex	black.PNG	60	0	0	0	0	04/05/22:18:04:08.780595	2425.593	0	0	guy	3	0.5	0	0	iti_startle
48	22	female	8	Probraum	2.5	20	2	phonemancaro	ex	black.PNG	60	0	0	0	0	04/05/22:18:04:08.797193	2425.609	0	0	opp	3	0.5	0	0	iti_startle
48	22	female	8	Probraum	2.5	20	2	phonemancaro	ex	black.PNG	60	0	0	0	0	04/05/22:18:04:08.814149	2425.625	0	0	opp	3	0.5	0	0	iti_startle
48	22	female	8	Probraum	2.5	20	2	phonemancaro	ex	black.PNG	60	0	0	0	0	04/05/22:18:04:08.830458	2425.64	0	0	opp	3	0.5	0	0	iti_startle
48	22	female	8	Probraum	2.5	20	2	phonemancaro	ex	black.PNG	60	1	0	0	0	04/05/22:18:04:08.831103	2425.64	0	0	opp	3	0.5	0	0	iti_startle
48	22	female	8	Probraum	2.5	20	2	phonemancaro	ex	black.PNG	60	1	1	1	0	04/05/22:18:04:10.256292	2427.062	0.0508	I	click opponentphone reaction, RT	3	0.5	0	0	iti_startle
48	22	female	8	Probraum	2.5	20	2	phonemancaro	ex	black.PNG	60	1	1	1	0	04/05/22:18:04:10.256292	2427.062	0.0508	I	click opponentphone reaction, RT	3	0.5	0	0	iti_startle
48	22	female	8	Probraum	2.5	20	2	phonemancaro	ex	blue.PNG	60	0	0	1	0	04/05/22:18:04:17.367336	2434.171	0	0	onset	3	0.5	0	0	silence
48	22	female	8	Probraum	2.5	20	2	phonemancaro	ex	blue.PNG	60	0	0	1	0	04/05/22:18:04:17.488011	2434.296	0	0	anticipation	3	0.5	0	0	silence
48	22	female	8	Probraum	2.5	20	2	phonemancaro	ex	blue.PNG	60	0	0	1	0	04/05/22:18:04:17.602704	2434.406	0	0	anticipation	3	0.5	0	0	silence
48	22	female	8	Probraum	2.5	20	2	phonemancaro	ex	blue.PNG	60	0	0	1	0	04/05/22:18:04:17.743328	2434.546	0	0	anticipation	3	0.5	0	0	silence
48	22	female	8	Probraum	2.5	20	2	phonemancaro	ex	blue.PNG	60	0	0	1	0	04/05/22:18:04:17.858024	2434.671	0	0	anticipation	3	0.5	0	0	silence
48	22	female	8	Probraum	2.5	20	2	phonemancaro	ex	blue.PNG	60	0	0	1	0	04/05/22:18:04:17.971717	2434.781	0	0	anticipation	3	0.5	0	0	silence
48	22	female	8	Probraum	2.5	20	2	phonemancaro	ex	blue.PNG	60	0	0	1	0	04/05/22:18:04:18.086413	2434.89	0	0	anticipation	3	0.5	0	0	silence
48	22	female	8	Probraum	2.5	20	2	phonemancaro	ex	blue.PNG	60	0	0	1	0	04/05/22:18:04:18.200109	2435.0	0	0	anticipation	3	0.5	0	0	silence
48	22	female	8	Probraum	2.5	20	2	phonemancaro	ex	blue.PNG	60	0	0	1	0	04/05/22:18:04:18.313803	2435.125	0	0	anticipation	3	0.5	0	0	silence
48	22	female	8	Probraum	2.5	20	2	phonemancaro	ex	blue.PNG	60	0	0	1	0	04/05/22:18:04:18.427499	2435.234	0	0	anticipation	3	0.5	0	0	silence
48	22	female	8	Probraum	2.5	20	2	phonemancaro	ex	blue.PNG	60	0	0	1	0	04/05/22:18:04:18.542192	2435.343	0	0	anticipation	3	0.5	0	0	silence
48	22	female	8	Probraum	2.5	20	2	phonemancaro	ex	blue.PNG	60	0	0	1	0	04/05/22:18:04:18.654890	2435.468	0	0	anticipation	3	0.5	0	0	silence
48	22	female	8	Probraum	2.5	20	2	phonemancaro	ex	blue.PNG	60	0	0	1	0	04/05/22:18:04:18.766592	2435.578	0	0	anticipation	3	0.5	0	0	silence
48	22	female	8	Probraum	2.5	20	2	phonemancaro	ex	blue.PNG	60	0	0	1	0	04/05/22:18:04:18.880290	2435.687	0	0	anticipation	3	0.5	0	0	silence
48	22	female	8	Probraum	2.5	20	2	phonemancaro	ex	blue.PNG	60	0	0	1	0	04/05/22:18:04:18.993984	2435.796	0	0	anticipation	3	0.5	0	0	silence
48	22	female	8	Probraum	2.5	20	2	phonemancaro	ex	blue.PNG	60	0	0	1	0	04/05/22:18:04:19.107682	2435.921	0	0	anticipation	3	0.5	0	0	silence
48	22	female	8	Probraum	2.5	20	2	phonemancaro	ex	blue.PNG	60	0	0	1	0	04/05/22:18:04:19.221376	2436.031	0	0	anticipation	3	0.5	0	0	silence
48	22	female	8	Probraum	2.5	20	2	phonemancaro	ex	blue.PNG	60	0	0	1	0	04/05/22:18:04:19.336070	2436.14	0	0	anticipation	3	0.5	0	0	silence
48	22	female	8	Probraum	2.5	20	2	phonemancaro	ex	blue.PNG	60	0	0	1	0	04/05/22:18:04:19.449766	2436.25	0	0	anticipation	3	0.5	0	0	silence
48	22	female	8	Probraum	2.5	20	2	phonemancaro	ex	blue.PNG	60	0	0	1	0	04/05/22:18:04:19.565456	2436.375	0	0	anticipation	3	0.5	0	0	silence
48	22	female	8	Probraum	2.5	20	2	phonemancaro	ex	blue.PNG	60	0	0	1	0	04/05/22:18:04:19.680152	2436.484	0	0	anticipation	3	0.5	0	0	silence
48	22	female	8	Probraum	2.5	20	2	phonemancaro	ex	blue.PNG	60	0	0	1	0	04/05/22:18:04:19.792848	2436.593	0	0	anticipation	3	0.5	0	0	silence
48	22	female	8	Probraum	2.5	20	2	phonemancaro	ex	blue.PNG	60	0	0	1	0	04/05/22:18:04:19.906544	2436.718	0	0	anticipation	3	0.5	0	0	silence
48	22	female	8	Probraum	2.5	20	2	phonemancaro	ex	blue.PNG	60	0	0	1	0	04/05/22:18:04:20.020242	2436.828	0	0	anticipation	3	0.5	0	0	silence
48	22	female	8	Probraum	2.5	20	2	phonemancaro	ex	blue.PNG	60	0	0	1	0	04/05/22:18:04:20.132939	2436.937	0	0	anticipation	3	0.5	0	0	silence
48	22	female	8	Probraum	2.5	20	2	phonemancaro	ex	blue.PNG	60	0	0	1	0	04/05/22:18:04:20.247634	2437.046	0	0	anticipation	3	0.5	0	0	silence
48	22	female	8	Probraum	2.5	20	2	phonemancaro	ex	blue.PNG	60	0	0	1	0	04/05/22:18:04:20.360331	2437.171	0	0	anticipation	3	0.5	0	0	silence
48	22	female	8	Probraum	2.5	20	2	phonemancaro	ex	blue.PNG	60	0	0	1	0	04/05/22:18:04:20.474027	2437.281	0	0	anticipation	3	0.5	0	0	silence
48	22	female	8	Probraum	2.5	20	2	phonemancaro	ex	blue.PNG	60	0	0	1	0	04/05/22:18:04:20.587723	2437.39	0	0	anticipation	3	0.5	0	0	silence
48	22	female	8	Probraum	2.5	20	2	phonemancaro	ex	blue.PNG	60	0	0	1	0	04/05/22:18:04:20.698427	2437.5	0	0	anticipation	3	0.5	0	0	silence
48	22	female	8	Probraum	2.5	20	2	phonemancaro	ex	blue.PNG	60	0	0	1	0	04/05/22:18:04:20.812125	2437.625	0	0	anticipation	3	0.5	0	0	silence
48	22	female	8	Probraum	2.5	20	2	phonemancaro	ex	blue.PNG	60	0	0	1	0	04/05/22:18:04:20.925819	2437.734	0	0	anticipation	3	0.5	0	0	silence
48	22	female	8	Probraum	2.5	20	2	phonemancaro	ex	blue.PNG	60	0	0	1	0	04/05/22:18:04:21.039514	2437.843	0	0	anticipation	3	0.5	0	0	silence
48	22	female	8	Probraum	2.5	20	2	phonemancaro	ex	blue.PNG	60	0	0	1	0	04/05/22:18:04:21.154210	2437.968	0	0	anticipation	3	0.5	0	0	silence
48	22	female	8	Probraum	2.5	20	2	phonemancaro	ex	blue.PNG	60	0	0	1	0	04/05/22:18:04:21.266909	2438.078	0	0	anticipation	3	0.5	0	0	silence
48	22	female	8	Probraum	2.5	20	2	phonemancaro	ex	blue.PNG	60	0	0	1	0	04/05/22:18:04:21.382600	2438.187	0	0	anticipation	3	0.5	0	0	silence
48	22	female	8	Probraum	2.5	20	2	phonemancaro	ex	blue.PNG	60	0	0	1	0	04/05/22:18:04:21.497291	2438.296	0	0	anticipation	3	0.5	0	0	silence
48	22	female	8	Probraum	2.5	20	2	phonemancaro	ex	blue.PNG	60	0	0	1	0	04/05/22:18:04:21.611987	2438.421	0	0	anticipation	3	0.5	0	0	silence
48	22	female	8	Probraum	2.5	20	2	phonemancaro	ex	blue.PNG	60	0	0	1	0	04/05/22:18:04:21.723686	2438.531	0	0	anticipation	3	0.5	0	0	silence
48	22	female	8	Probraum	2.5	20	2	phonemancaro	ex	blue.PNG	60	0	0	1	0	04/05/22:18:04:21.838381	2438.64	0	0	anticipation	3	0.5	0	0	silence
48	22	female	8	Probraum	2.5	20	2	phonemancaro	ex	blue.PNG	60	0	0	1	0	04/05/22:18:04:21.951077	2438.765	0	0	anticipation	3	0.5	0	0	silence
48	22	female	8	Probraum	2.5	20	2	phonemancaro	ex	blue.PNG	60	0	0	1	0	04/05/22:18:04:22.064774	2438.875	0	0	anticipation	3	0.5	0	0	silence
48	22	female	8	Probraum	2.5	20	2	phonemancaro	ex	blue.PNG	60	0	0	1	0	04/05/22:18:04:22.179469	2438.984	0	0	anticipation	3	0.5	0	0	silence
48	22	female	8	Probraum	2.5	20	2	phonemancaro	ex	blue.PNG	60	0	0	1	0	04/05/22:18:04:22.293163	2439.093	0	0	anticipation	3	0.5	0	0	silence
48	22	female	8	Probraum	2.5	20	2	phonemancaro	ex	blue.PNG	60	0	0	1	0	04/05/22:18:04:22.407859	2439.218	0	0	anticipation	3	0.5	0	0	silence
48	22	female	8	Probraum	2.5	20	2	phonemancaro	ex	blue.PNG	60	0	0	1	0	04/05/22:18:04:22.521553	2439.328	0	0	anticipation	3	0.5	0	0	silence
48	22	female	8	Probraum	2.5	20	2	phonemancaro	ex	blue.PNG	60	0	0	1	0	04/05/22:18:04:22.635250	2439.437	0	0	anticipation	3	0.5	0	0	silence
48	22	female	8	Probraum	2.5	20	2	phonemancaro	ex	blue.PNG	60	0	0	1	0	04/05/22:18:04:22.746950	2439.546	0	0	anticipation	3	0.5	0	0	silence
48	22	female	8	Probraum	2.5	20	2	phonemancaro	ex	blue.PNG	60	0	0	1	0	04/05/22:18:04:22.860645	2439.671	0	0	anticipation	3	0.5	0	0	silence
48	22	female	8	Probraum	2.5	20	2	phonemancaro	ex	blue.PNG	60	0	0	1	0	04/05/22:18:04:22.974397	2439.781	0	0	anticipation	3	0.5	0	0	silence
48	22	female	8	Probraum	2.5	20	2	phonemancaro	ex	blue.PNG	60	0	0	1	0	04/05/22:18:04:23.088040	2439.89	0	0	anticipation	3	0.5	0	0	silence
48	22	female	8	Probraum	2.5	20	2	phonemancaro	ex	blue.PNG	60	0	0	1	0	04/05/22:18:04:23.201733	2440.015	0	0	anticipation	3	0.5	0	0	silence
48	22	female	8	Probraum	2.5	20	2	phonemancaro	ex	blue.PNG	60	0	0	1	0	04/05/22:18:04:23.314435	2440.125	0	0	anticipation	3	0.5	0	0	silence
48	22	female	8	Probraum	2.5	20	2	phonemancaro	ex	blue.PNG	60	0	0	1	0	04/05/22:18:04:23.428131	2440.234	0	0	anticipation	3	0.5	0	0	silence
48	22	female	8	Probraum	2.5	20	2	phonemancaro	ex	blue.PNG	60	0	0	1	0	04/05/22:18:04:23.541826	2440.343	0	0	anticipation	3	0.5	0	0	silence
48	22	female	8	Probraum	2.5	20	2	phonemancaro	ex	blue.PNG	60	0	0	1	0	04/05/22:18:04:23.546814	2440.359	0	0	guy	3	0.5	0	0	silence
48	22	female	8	Probraum	2.5	20	2	phonemancaro	ex	blue.PNG	60	0	0	1	0	04/05/22:18:04:23.562768	2440.375	0	0	guy	3	0.5	0	0	silence
48	22	female	8	Probraum	2.5	20	2	phonemancaro	ex	blue.PNG	60	0	0	1	0	04/05/22:18:04:23.579723	2440.39	0	0	guy	3	0.5	0	0	silence
48	22	female	8	Probraum	2.5	20	2	phonemancaro	ex	blue.PNG	60	0	0	1	0	04/05/22:18:04:23.596681	2440.406	0	0	guy	3	0.5	0	0	silence
48	22	female	8	Probraum	2.5	20	2	phonemancaro	ex	blue.PNG	60	0	0	1	0	04/05/22:18:04:23.613635	2440.421	0	0	guy	3	0.5	0	0	silence
48	22	female	8	Probraum	2.5	20	2	phonemancaro	ex	blue.PNG	60	0	0	1	0	04/05/22:18:04:23.630589	2440.437	0	0	guy	3	0.5	0	0	silence
48	22	female	8	Probraum	2.5	20	2	phonemancaro	ex	blue.PNG	60	0	0	1	0	04/05/22:18:04:23.647544	2440.453	0	0	guy	3	0.5	0	0	silence
48	22	female	8	Probraum	2.5	20	2	phonemancaro	ex	blue.PNG	60	0	0	1	0	04/05/22:18:04:23.663500	2440.468	0	0	guy	3	0.5	0	0	silence
48	22	female	8	Probraum	2.5	20	2	phonemancaro	ex	blue.PNG	60	0	0	1	0	04/05/22:18:04:23.680456	2440.484	0	0	guy	3	0.5	0	0	silence
48	22	female	8	Probraum	2.5	20	2	phonemancaro	ex	blue.PNG	60	0	0	1	0	04/05/22:18:04:23.696413	2440.5	0	0	guy	3	0.5	0	0	silence
48	22	female	8	Probraum	2.5	20	2	phonemancaro	ex	blue.PNG	60	0	0	1	0	04/05/22:18:04:23.713368	2440.515	0	0	guy	3	0.5	0	0	silence
48	22	female	8	Probraum	2.5	20	2	phonemancaro	ex	blue.PNG	60	0	0	1	0	04/05/22:18:04:23.730327	2440.531	0	0	guy	3	0.5	0	0	silence
48	22	female	8	Probraum	2.5	20	2	phonemancaro	ex	blue.PNG	60	0	0	1	0	04/05/22:18:04:23.747284	2440.546	0	0	guy	3	0.5	0	0	silence
48	22	female	8	Probraum	2.5	20	2	phonemancaro	ex	blue.PNG	60	0	0	1	0	04/05/22:18:04:23.763242	2440.562	0	0	guy	3	0.5	0	0	silence
48	22	female	8	Probraum	2.5	20	2	phonemancaro	ex	blue.PNG	60	0	0	1	0	04/05/22:18:04:23.780194	2440.593	0	0	guy	3	0.5	0	0	silence
48	22	female	8	Probraum	2.5	20	2	phonemancaro	ex	blue.PNG	60	0	0	1	0	04/05/22:18:04:23.797151	2440.609	0	0	guy	3	0.5	0	0	silence
48	22	female	8	Probraum	2.5	20	2	phonemancaro	ex	blue.PNG	60	0	0	1	0	04/05/22:18:04:23.814106	2440.625	0	0	guy	3	0.5	0	0	silence
48	22	female	8	Probraum	2.5	20	2	phonemancaro	ex	blue.PNG	60	0	0	1	0	04/05/22:18:04:23.830061	2440.64	0	0	guy	3	0.5	0	0	silence
48	22	female	8	Probraum	2.5	20	2	phonemancaro	ex	blue.PNG	60	0	0	1	0	04/05/22:18:04:23.847017	2440.656	0	0	guy	3	0.5	0	0	silence
48	22	female	8	Probraum	2.5	20	2	phonemancaro	ex	blue.PNG	60	0	0	1	0	04/05/22:18:04:23.863972	2440.671	0	0	guy	3	0.5	0	0	silence
48	22	female	8	Probraum	2.5	20	2	phonemancaro	ex	blue.PNG	60	0	0	1	0	04/05/22:18:04:23.880927	2440.687	0	0	guy	3	0.5	0	0	silence
48	22	female	8	Probraum	2.5	20	2	phonemancaro	ex	blue.PNG	60	0	0	1	0	04/05/22:18:04:23.896884	2440.703	0	0	guy	3	0.5	0	0	silence
48	22	female	8	Probraum	2.5	20	2	phonemancaro	ex	blue.PNG	60	0	0	1	0	04/05/22:18:04:23.913837	2440.718	0	0	guy	3	0.5	0	0	silence
48	22	female	8	Probraum	2.5	20	2	phonemancaro	ex	blue.PNG	60	0	0	1	0	04/05/22:18:04:23.930791	2440.734	0	0	guy	3	0.5	0	0	silence
48	22	female	8	Probraum	2.5	20	2	phonemancaro	ex	blue.PNG	60	0	0	1	0	04/05/22:18:04:23.947746	2440.75	0	0	guy	3	0.5	0	0	silence
48	22	female	8	Probraum	2.5	20	2	phonemancaro	ex	blue.PNG	60	0	0	1	0	04/05/22:18:04:23.963704	2440.765	0	0	guy	3	0.5	0	0	silence
48	22	female	8	Probraum	2.5	20	2	phonemancaro	ex	blue.PNG	60	0	0	1	0	04/05/22:18:04:23.980667	2440.781	0	0	guy	3	0.5	0	0	silence
48	22	female	8	Probraum	2.5	20	2	phonemancaro	ex	blue.PNG	60	0	0	1	0	04/05/22:18:04:23.997615	2440.796	0	0	guy	3	0.5	0	0	silence
48	22	female	8	Probraum	2.5	20	2	phonemancaro	ex	blue.PNG	60	0	0	1	0	04/05/22:18:04:24.014570	2440.828	0	0	guy	3	0.5	0	0	silence
48	22	female	8	Probraum	2.5	20	2	phonemancaro	ex	blue.PNG	60	0	0	1	0	04/05/22:18:04:24.030525	2440.843	0	0	guy	3	0.5	0	0	silence
48	22	female	8	Probraum	2.5	20	2	phonemancaro	ex	blue.PNG	60	0	0	1	0	04/05/22:18:04:24.047482	2440.859	0	0	guy	3	0.5	0	0	silence
48	22	female	8	Probraum	2.5	20	2	phonemancaro	ex	blue.PNG	60	0	0	1	0	04/05/22:18:04:24.063437	2440.875	0	0	guy	3	0.5	0	0	silence
48	22	female	8	Probraum	2.5	20	2	phonemancaro	ex	blue.PNG	60	0	0	1	0	04/05/22:18:04:24.080392	2440.89	0	0	guy	3	0.5	0	0	silence
48	22	female	8	Probraum	2.5	20	2	phonemancaro	ex	blue.PNG	60	0	0	1	0	04/05/22:18:04:24.097350	2440.906	0	0	guy	3	0.5	0	0	silence
48	22	female	8	Probraum	2.5	20	2	phonemancaro	ex	blue.PNG	60	0	0	1	0	04/05/22:18:04:24.114303	2440.921	0	0	guy	3	0.5	0	0	silence
48	22	female	8	Probraum	2.5	20	2	phonemancaro	ex	blue.PNG	60	0	0	1	0	04/05/22:18:04:24.130259	2440.937	0	0	guy	3	0.5	0	0	silence
48	22	female	8	Probraum	2.5	20	2	phonemancaro	ex	blue.PNG	60	0	0	1	0	04/05/22:18:04:24.147217	2440.953	0	0	guy	3	0.5	0	0	silence
48	22	female	8	Probraum	2.5	20	2	phonemancaro	ex	blue.PNG	60	0	0	1	0	04/05/22:18:04:24.164172	2440.968	0	0	guy	3	0.5	0	0	silence
48	22	female	8	Probraum	2.5	20	2	phonemancaro	ex	blue.PNG	60	0	0	1	0	04/05/22:18:04:24.181122	2440.984	0	0	guy	3	0.5	0	0	silence
48	22	female	8	Probraum	2.5	20	2	phonemancaro	ex	blue.PNG	60	0	0	1	0	04/05/22:18:04:24.197079	2441.0	0	0	guy	3	0.5	0	0	silence
48	22	female	8	Probraum	2.5	20	2	phonemancaro	ex	blue.PNG	60	0	0	1	0	04/05/22:18:04:24.214036	2441.015	0	0	guy	3	0.5	0	0	silence
48	22	female	8	Probraum	2.5	20	2	phonemancaro	ex	blue.PNG	60	0	0	1	0	04/05/22:18:04:24.230991	2441.031	0	0	guy	3	0.5	0	0	silence
48	22	female	8	Probraum	2.5	20	2	phonemancaro	ex	blue.PNG	60	0	0	1	0	04/05/22:18:04:24.246946	2441.046	0	0	guy	3	0.5	0	0	silence
48	22	female	8	Probraum	2.5	20	2	phonemancaro	ex	blue.PNG	60	0	0	1	0	04/05/22:18:04:24.263901	2441.078	0	0	guy	3	0.5	0	0	silence
48	22	female	8	Probraum	2.5	20	2	phonemancaro	ex	blue.PNG	60	0	0	1	0	04/05/22:18:04:24.280858	2441.093	0	0	guy	3	0.5	0	0	silence
48	22	female	8	Probraum	2.5	20	2	phonemancaro	ex	blue.PNG	60	0	0	1	0	04/05/22:18:04:24.296814	2441.109	0	0	guy	3	0.5	0	0	silence
48	22	female	8	Probraum	2.5	20	2	phonemancaro	ex	blue.PNG	60	0	0	1	0	04/05/22:18:04:24.313768	2441.125	0	0	guy	3	0.5	0	0	silence
48	22	female	8	Probraum	2.5	20	2	phonemancaro	ex	blue.PNG	60	0	0	1	0	04/05/22:18:04:24.330725	2441.14	0	0	guy	3	0.5	0	0	silence
48	22	female	8	Probraum	2.5	20	2	phonemancaro	ex	blue.PNG	60	0	0	1	0	04/05/22:18:04:24.347679	2441.156	0	0	guy	3	0.5	0	0	silence
48	22	female	8	Probraum	2.5	20	2	phonemancaro	ex	blue.PNG	60	0	0	1	0	04/05/22:18:04:24.363634	2441.171	0	0	guy	3	0.5	0	0	silence
48	22	female	8	Probraum	2.5	20	2	phonemancaro	ex	blue.PNG	60	0	0	1	0	04/05/22:18:04:24.380589	2441.187	0	0	guy	3	0.5	0	0	silence
48	22	female	8	Probraum	2.5	20	2	phonemancaro	ex	blue.PNG	60	0	0	1	0	04/05/22:18:04:24.397546	2441.203	0	0	guy	3	0.5	0	0	silence
48	22	female	8	Probraum	2.5	20	2	phonemancaro	ex	blue.PNG	60	0	0	1	0	04/05/22:18:04:24.413501	2441.218	0	0	guy	3	0.5	0	0	silence
48	22	female	8	Probraum	2.5	20	2	phonemancaro	ex	blue.PNG	60	0	0	1	0	04/05/22:18:04:24.430458	2441.234	0	0	guy	3	0.5	0	0	silence
48	22	female	8	Probraum	2.5	20	2	phonemancaro	ex	blue.PNG	60	0	0	1	0	04/05/22:18:04:24.447412	2441.25	0	0	guy	3	0.5	0	0	silence
48	22	female	8	Probraum	2.5	20	2	phonemancaro	ex	blue.PNG	60	0	0	1	0	04/05/22:18:04:24.463368	2441.265	0	0	opp	3	0.5	0	0	silence
48	22	female	8	Probraum	2.5	20	2	phonemancaro	ex	blue.PNG	60	0	0	1	0	04/05/22:18:04:24.480322	2441.281	0	0	opp	3	0.5	0	0	silence
48	22	female	8	Probraum	2.5	20	2	phonemancaro	ex	blue.PNG	60	0	0	1	0	04/05/22:18:04:24.497277	2441.296	0	0	opp	3	0.5	0	0	silence
48	22	female	8	Probraum	2.5	20	2	phonemancaro	ex	blue.PNG	60	0	0	1	0	04/05/22:18:04:24.514234	2441.328	0	0	opp	3	0.5	0	0	silence
48	22	female	8	Probraum	2.5	20	2	phonemancaro	ex	blue.PNG	60	0	0	1	0	04/05/22:18:04:24.530191	2441.343	0	0	opp	3	0.5	0	0	silence
48	22	female	8	Probraum	2.5	20	2	phonemancaro	ex	blue.PNG	60	0	0	1	0	04/05/22:18:04:24.547144	2441.359	0	0	opp	3	0.5	0	0	silence
48	22	female	8	Probraum	2.5	20	2	phonemancaro	ex	blue.PNG	60	0	0	1	0	04/05/22:18:04:24.564101	2441.375	0	0	opp	3	0.5	0	0	silence
48	22	female	8	Probraum	2.5	20	2	phonemancaro	ex	blue.PNG	60	0	0	1	0	04/05/22:18:04:24.580055	2441.39	0	0	opp	3	0.5	0	0	silence
48	22	female	8	Probraum	2.5	20	2	phonemancaro	ex	blue.PNG	60	0	0	1	0	04/05/22:18:04:24.597010	2441.406	0	0	opp	3	0.5	0	0	silence
48	22	female	8	Probraum	2.5	20	2	phonemancaro	ex	blue.PNG	60	0	0	1	0	04/05/22:18:04:24.613965	2441.421	0	0	opp	3	0.5	0	0	silence
48	22	female	8	Probraum	2.5	20	2	phonemancaro	ex	blue.PNG	60	0	0	1	0	04/05/22:18:04:24.630919	2441.437	0	0	opp	3	0.5	0	0	silence
48	22	female	8	Probraum	2.5	20	2	phonemancaro	ex	blue.PNG	60	0	0	1	0	04/05/22:18:04:24.646877	2441.453	0	0	opp	3	0.5	0	0	silence
48	22	female	8	Probraum	2.5	20	2	phonemancaro	ex	blue.PNG	60	0	0	1	0	04/05/22:18:04:24.663834	2441.468	0	0	opp	3	0.5	0	0	silence
48	22	female	8	Probraum	2.5	20	2	phonemancaro	ex	blue.PNG	60	0	0	1	0	04/05/22:18:04:24.679798	2441.484	0	0	opp	3	0.5	0	0	silence
48	22	female	8	Probraum	2.5	20	2	phonemancaro	ex	blue.PNG	60	0	0	1	0	04/05/22:18:04:24.696752	2441.5	0	0	opp	3	0.5	0	0	silence
48	22	female	8	Probraum	2.5	20	2	phonemancaro	ex	blue.PNG	60	0	0	1	0	04/05/22:18:04:24.713708	2441.515	0	0	opp	3	0.5	0	0	silence
48	22	female	8	Probraum	2.5	20	2	phonemancaro	ex	blue.PNG	60	0	0	1	0	04/05/22:18:04:24.730663	2441.531	0	0	opp	3	0.5	0	0	silence
48	22	female	8	Probraum	2.5	20	2	phonemancaro	ex	blue.PNG	60	0	0	1	0	04/05/22:18:04:24.747043	2441.546	0	0	opp	3	0.5	0	0	silence
48	22	female	8	Probraum	2.5	20	2	phonemancaro	ex	blue.PNG	60	0	0	1	0	04/05/22:18:04:24.763999	2441.578	0	0	opp	3	0.5	0	0	silence
48	22	female	8	Probraum	2.5	20	2	phonemancaro	ex	blue.PNG	60	0	0	1	0	04/05/22:18:04:24.779954	2441.593	0	0	opp	3	0.5	0	0	silence
48	22	female	8	Probraum	2.5	20	2	phonemancaro	ex	blue.PNG	60	0	0	1	0	04/05/22:18:04:24.796910	2441.609	0	0	opp	3	0.5	0	0	silence
48	22	female	8	Probraum	2.5	20	2	phonemancaro	ex	blue.PNG	60	0	0	1	0	04/05/22:18:04:24.813874	2441.625	0	0	opp	3	0.5	0	0	silence
48	22	female	8	Probraum	2.5	20	2	phonemancaro	ex	blue.PNG	60	0	0	1	0	04/05/22:18:04:24.830826	2441.64	0	0	opp	3	0.5	0	0	silence
48	22	female	8	Probraum	2.5	20	2	phonemancaro	ex	blue.PNG	60	0	0	1	0	04/05/22:18:04:24.846787	2441.656	0	0	opp	3	0.5	0	0	silence
48	22	female	8	Probraum	2.5	20	2	phonemancaro	ex	blue.PNG	60	0	0	1	0	04/05/22:18:04:24.863739	2441.671	0	0	opp	3	0.5	0	0	silence
48	22	female	8	Probraum	2.5	20	2	phonemancaro	ex	blue.PNG	60	0	0	1	0	04/05/22:18:04:24.880695	2441.687	0	0	opp	3	0.5	0	0	silence
48	22	female	8	Probraum	2.5	20	2	phonemancaro	ex	blue.PNG	60	0	0	1	0	04/05/22:18:04:24.896652	2441.703	0	0	opp	3	0.5	0	0	silence
48	22	female	8	Probraum	2.5	20	2	phonemancaro	ex	blue.PNG	60	0	0	1	0	04/05/22:18:04:24.913973	2441.718	0	0	opp	3	0.5	0	0	silence
48	22	female	8	Probraum	2.5	20	2	phonemancaro	ex	blue.PNG	60	0	0	1	0	04/05/22:18:04:24.930926	2441.734	0	0	opp	3	0.5	0	0	silence
48	22	female	8	Probraum	2.5	20	2	phonemancaro	ex	blue.PNG	60	0	0	1	0	04/05/22:18:04:24.947007	2441.75	0	0	opp	3	0.5	0	0	silence
48	22	female	8	Probraum	2.5	20	2	phonemancaro	ex	blue.PNG	60	0	0	1	0	04/05/22:18:04:24.963959	2441.765	0	C	follow up	3	0.5	0	0	silence
48	22	female	8	Probraum	2.5	20	2	controlguy	ex	yellow.PNG	60	0	0	1	0	04/05/22:18:04:30.068367	2446.875	0	0	onset	3	0.5	0	0	silence
48	22	female	8	Probraum	2.5	20	2	controlguy	ex	yellow.PNG	60	0	0	1	0	04/05/22:18:04:30.199018	2447.0	0	0	anticipation	3	0.5	0	0	silence
48	22	female	8	Probraum	2.5	20	2	controlguy	ex	yellow.PNG	60	0	0	1	0	04/05/22:18:04:30.315706	2447.125	0	0	anticipation	3	0.5	0	0	silence
48	22	female	8	Probraum	2.5	20	2	controlguy	ex	yellow.PNG	60	0	0	1	0	04/05/22:18:04:30.431396	2447.234	0	0	anticipation	3	0.5	0	0	silence
48	22	female	8	Probraum	2.5	20	2	controlguy	ex	yellow.PNG	60	0	0	1	0	04/05/22:18:04:30.547087	2447.359	0	0	anticipation	3	0.5	0	0	silence
48	22	female	8	Probraum	2.5	20	2	controlguy	ex	yellow.PNG	60	0	0	1	0	04/05/22:18:04:30.661780	2447.468	0	0	anticipation	3	0.5	0	0	silence
48	22	female	8	Probraum	2.5	20	2	controlguy	ex	yellow.PNG	60	0	0	1	0	04/05/22:18:04:30.774479	2447.578	0	0	anticipation	3	0.5	0	0	silence
48	22	female	8	Probraum	2.5	20	2	controlguy	ex	yellow.PNG	60	0	0	1	0	04/05/22:18:04:30.889173	2447.703	0	0	anticipation	3	0.5	0	0	silence
48	22	female	8	Probraum	2.5	20	2	controlguy	ex	yellow.PNG	60	0	0	1	0	04/05/22:18:04:31.004863	2447.812	0	0	anticipation	3	0.5	0	0	silence
48	22	female	8	Probraum	2.5	20	2	controlguy	ex	yellow.PNG	60	0	0	1	0	04/05/22:18:04:31.120551	2447.921	0	0	anticipation	3	0.5	0	0	silence
48	22	female	8	Probraum	2.5	20	2	controlguy	ex	yellow.PNG	60	0	0	1	0	04/05/22:18:04:31.236244	2448.046	0	0	anticipation	3	0.5	0	0	silence
48	22	female	8	Probraum	2.5	20	2	controlguy	ex	yellow.PNG	60	0	0	1	0	04/05/22:18:04:31.350938	2448.156	0	0	anticipation	3	0.5	0	0	silence
48	22	female	8	Probraum	2.5	20	2	controlguy	ex	yellow.PNG	60	0	0	1	0	04/05/22:18:04:31.466628	2448.281	0	0	anticipation	3	0.5	0	0	silence
48	22	female	8	Probraum	2.5	20	2	controlguy	ex	yellow.PNG	60	0	0	1	0	04/05/22:18:04:31.581323	2448.39	0	0	anticipation	3	0.5	0	0	silence
48	22	female	8	Probraum	2.5	20	2	controlguy	ex	yellow.PNG	60	0	0	1	0	04/05/22:18:04:31.695018	2448.5	0	0	anticipation	3	0.5	0	0	silence
48	22	female	8	Probraum	2.5	20	2	controlguy	ex	yellow.PNG	60	0	0	1	0	04/05/22:18:04:31.809711	2448.609	0	0	anticipation	3	0.5	0	0	silence
48	22	female	8	Probraum	2.5	20	2	controlguy	ex	yellow.PNG	60	0	0	1	0	04/05/22:18:04:31.924405	2448.734	0	0	anticipation	3	0.5	0	0	silence
48	22	female	8	Probraum	2.5	20	2	controlguy	ex	yellow.PNG	60	0	0	1	0	04/05/22:18:04:32.040096	2448.843	0	0	anticipation	3	0.5	0	0	silence
48	22	female	8	Probraum	2.5	20	2	controlguy	ex	yellow.PNG	60	0	0	1	0	04/05/22:18:04:32.154789	2448.968	0	0	anticipation	3	0.5	0	0	silence
48	22	female	8	Probraum	2.5	20	2	controlguy	ex	yellow.PNG	60	0	0	1	0	04/05/22:18:04:32.281450	2449.093	0	0	anticipation	3	0.5	0	0	silence
48	22	female	8	Probraum	2.5	20	2	controlguy	ex	yellow.PNG	60	0	0	1	0	04/05/22:18:04:32.396143	2449.203	0	0	anticipation	3	0.5	0	0	silence
48	22	female	8	Probraum	2.5	20	2	controlguy	ex	yellow.PNG	60	0	0	1	0	04/05/22:18:04:32.510837	2449.312	0	0	anticipation	3	0.5	0	0	silence
48	22	female	8	Probraum	2.5	20	2	controlguy	ex	yellow.PNG	60	0	0	1	0	04/05/22:18:04:32.635503	2449.437	0	0	anticipation	3	0.5	0	0	silence
48	22	female	8	Probraum	2.5	20	2	controlguy	ex	yellow.PNG	60	0	0	1	0	04/05/22:18:04:32.749200	2449.562	0	0	anticipation	3	0.5	0	0	silence
48	22	female	8	Probraum	2.5	20	2	controlguy	ex	yellow.PNG	60	0	0	1	0	04/05/22:18:04:32.863893	2449.671	0	0	anticipation	3	0.5	0	0	silence
48	22	female	8	Probraum	2.5	20	2	controlguy	ex	yellow.PNG	60	0	0	1	0	04/05/22:18:04:32.979583	2449.781	0	0	anticipation	3	0.5	0	0	silence
48	22	female	8	Probraum	2.5	20	2	controlguy	ex	yellow.PNG	60	0	0	1	0	04/05/22:18:04:33.118083	2449.921	0	0	anticipation	3	0.5	0	0	silence
48	22	female	8	Probraum	2.5	20	2	controlguy	ex	yellow.PNG	60	0	0	1	0	04/05/22:18:04:33.232776	2450.046	0	0	anticipation	3	0.5	0	0	silence
48	22	female	8	Probraum	2.5	20	2	controlguy	ex	yellow.PNG	60	0	0	1	0	04/05/22:18:04:33.347469	2450.156	0	0	anticipation	3	0.5	0	0	silence
48	22	female	8	Probraum	2.5	20	2	controlguy	ex	yellow.PNG	60	0	0	1	0	04/05/22:18:04:33.461165	2450.265	0	0	anticipation	3	0.5	0	0	silence
48	22	female	8	Probraum	2.5	20	2	controlguy	ex	yellow.PNG	60	0	0	1	0	04/05/22:18:04:33.575859	2450.375	0	0	anticipation	3	0.5	0	0	silence
48	22	female	8	Probraum	2.5	20	2	controlguy	ex	yellow.PNG	60	0	0	1	0	04/05/22:18:04:33.688557	2450.5	0	0	anticipation	3	0.5	0	0	silence
48	22	female	8	Probraum	2.5	20	2	controlguy	ex	yellow.PNG	60	0	0	1	0	04/05/22:18:04:33.802253	2450.609	0	0	anticipation	3	0.5	0	0	silence
48	22	female	8	Probraum	2.5	20	2	controlguy	ex	yellow.PNG	60	0	0	1	0	04/05/22:18:04:33.915949	2450.718	0	0	anticipation	3	0.5	0	0	silence
48	22	female	8	Probraum	2.5	20	2	controlguy	ex	yellow.PNG	60	0	0	1	0	04/05/22:18:04:34.029645	2450.843	0	0	anticipation	3	0.5	0	0	silence
48	22	female	8	Probraum	2.5	20	2	controlguy	ex	yellow.PNG	60	0	0	1	0	04/05/22:18:04:34.142344	2450.953	0	0	anticipation	3	0.5	0	0	silence
48	22	female	8	Probraum	2.5	20	2	controlguy	ex	yellow.PNG	60	0	0	1	0	04/05/22:18:04:34.255042	2451.062	0	0	anticipation	3	0.5	0	0	silence
48	22	female	8	Probraum	2.5	20	2	controlguy	ex	yellow.PNG	60	0	0	1	0	04/05/22:18:04:34.368739	2451.171	0	0	anticipation	3	0.5	0	0	silence
48	22	female	8	Probraum	2.5	20	2	controlguy	ex	yellow.PNG	60	0	0	1	0	04/05/22:18:04:34.482435	2451.296	0	0	anticipation	3	0.5	0	0	silence
48	22	female	8	Probraum	2.5	20	2	controlguy	ex	yellow.PNG	60	0	0	1	0	04/05/22:18:04:34.597128	2451.406	0	0	anticipation	3	0.5	0	0	silence
48	22	female	8	Probraum	2.5	20	2	controlguy	ex	yellow.PNG	60	0	0	1	0	04/05/22:18:04:34.709826	2451.515	0	0	anticipation	3	0.5	0	0	silence
48	22	female	8	Probraum	2.5	20	2	controlguy	ex	yellow.PNG	60	0	0	1	0	04/05/22:18:04:34.823523	2451.625	0	0	anticipation	3	0.5	0	0	silence
48	22	female	8	Probraum	2.5	20	2	controlguy	ex	yellow.PNG	60	0	0	1	0	04/05/22:18:04:34.937219	2451.75	0	0	anticipation	3	0.5	0	0	silence
48	22	female	8	Probraum	2.5	20	2	controlguy	ex	yellow.PNG	60	0	0	1	0	04/05/22:18:04:35.050912	2451.859	0	0	anticipation	3	0.5	0	0	silence
48	22	female	8	Probraum	2.5	20	2	controlguy	ex	yellow.PNG	60	0	0	1	0	04/05/22:18:04:35.164611	2451.968	0	0	anticipation	3	0.5	0	0	silence
48	22	female	8	Probraum	2.5	20	2	controlguy	ex	yellow.PNG	60	0	0	1	0	04/05/22:18:04:35.278307	2452.078	0	0	anticipation	3	0.5	0	0	silence
48	22	female	8	Probraum	2.5	20	2	controlguy	ex	yellow.PNG	60	0	0	1	0	04/05/22:18:04:35.393000	2452.203	0	0	anticipation	3	0.5	0	0	silence
48	22	female	8	Probraum	2.5	20	2	controlguy	ex	yellow.PNG	60	0	0	1	0	04/05/22:18:04:35.507693	2452.312	0	0	anticipation	3	0.5	0	0	silence
48	22	female	8	Probraum	2.5	20	2	controlguy	ex	yellow.PNG	60	0	0	1	0	04/05/22:18:04:35.621390	2452.421	0	0	anticipation	3	0.5	0	0	silence
48	22	female	8	Probraum	2.5	20	2	controlguy	ex	yellow.PNG	60	0	0	1	0	04/05/22:18:04:35.733091	2452.546	0	0	anticipation	3	0.5	0	0	silence
48	22	female	8	Probraum	2.5	20	2	controlguy	ex	yellow.PNG	60	0	0	1	0	04/05/22:18:04:35.845789	2452.656	0	0	anticipation	3	0.5	0	0	silence
48	22	female	8	Probraum	2.5	20	2	controlguy	ex	yellow.PNG	60	0	0	1	0	04/05/22:18:04:35.960483	2452.765	0	0	anticipation	3	0.5	0	0	silence
48	22	female	8	Probraum	2.5	20	2	controlguy	ex	yellow.PNG	60	0	0	1	0	04/05/22:18:04:36.074179	2452.875	0	0	anticipation	3	0.5	0	0	silence
48	22	female	8	Probraum	2.5	20	2	controlguy	ex	yellow.PNG	60	0	0	1	0	04/05/22:18:04:36.187874	2453.0	0	0	anticipation	3	0.5	0	0	silence
48	22	female	8	Probraum	2.5	20	2	controlguy	ex	yellow.PNG	60	0	0	1	0	04/05/22:18:04:36.301571	2453.109	0	0	anticipation	3	0.5	0	0	silence
48	22	female	8	Probraum	2.5	20	2	controlguy	ex	yellow.PNG	60	0	0	1	0	04/05/22:18:04:36.313538	2453.125	0	0	guy	3	0.5	0	0	silence
48	22	female	8	Probraum	2.5	20	2	controlguy	ex	yellow.PNG	60	0	0	1	0	04/05/22:18:04:36.329496	2453.14	0	0	guy	3	0.5	0	0	silence
48	22	female	8	Probraum	2.5	20	2	controlguy	ex	yellow.PNG	60	0	0	1	0	04/05/22:18:04:36.346451	2453.156	0	0	guy	3	0.5	0	0	silence
48	22	female	8	Probraum	2.5	20	2	controlguy	ex	yellow.PNG	60	0	0	1	0	04/05/22:18:04:36.363405	2453.171	0	0	guy	3	0.5	0	0	silence
48	22	female	8	Probraum	2.5	20	2	controlguy	ex	yellow.PNG	60	0	0	1	0	04/05/22:18:04:36.380360	2453.187	0	0	guy	3	0.5	0	0	silence
48	22	female	8	Probraum	2.5	20	2	controlguy	ex	yellow.PNG	60	0	0	1	0	04/05/22:18:04:36.397315	2453.203	0	0	guy	3	0.5	0	0	silence
48	22	female	8	Probraum	2.5	20	2	controlguy	ex	yellow.PNG	60	0	0	1	0	04/05/22:18:04:36.414269	2453.218	0	0	guy	3	0.5	0	0	silence
48	22	female	8	Probraum	2.5	20	2	controlguy	ex	yellow.PNG	60	0	0	1	0	04/05/22:18:04:36.430582	2453.234	0	0	guy	3	0.5	0	0	silence
48	22	female	8	Probraum	2.5	20	2	controlguy	ex	yellow.PNG	60	0	0	1	0	04/05/22:18:04:36.447181	2453.25	0	0	guy	3	0.5	0	0	silence
48	22	female	8	Probraum	2.5	20	2	controlguy	ex	yellow.PNG	60	0	0	1	0	04/05/22:18:04:36.464136	2453.265	0	0	guy	3	0.5	0	0	silence
48	22	female	8	Probraum	2.5	20	2	controlguy	ex	yellow.PNG	60	0	0	1	0	04/05/22:18:04:36.488087	2453.296	0	0	guy	3	0.5	0	0	silence
48	22	female	8	Probraum	2.5	20	2	controlguy	ex	yellow.PNG	60	0	0	1	0	04/05/22:18:04:36.499043	2453.312	0	0	guy	3	0.5	0	0	silence
48	22	female	8	Probraum	2.5	20	2	controlguy	ex	yellow.PNG	60	0	0	1	0	04/05/22:18:04:36.514003	2453.328	0	0	guy	3	0.5	0	0	silence
48	22	female	8	Probraum	2.5	20	2	controlguy	ex	yellow.PNG	60	0	0	1	0	04/05/22:18:04:36.529960	2453.343	0	0	guy	3	0.5	0	0	silence
48	22	female	8	Probraum	2.5	20	2	controlguy	ex	yellow.PNG	60	0	0	1	0	04/05/22:18:04:36.546915	2453.359	0	0	guy	3	0.5	0	0	silence
48	22	female	8	Probraum	2.5	20	2	controlguy	ex	yellow.PNG	60	0	0	1	0	04/05/22:18:04:36.563869	2453.375	0	0	guy	3	0.5	0	0	silence
48	22	female	8	Probraum	2.5	20	2	controlguy	ex	yellow.PNG	60	0	0	1	0	04/05/22:18:04:36.580824	2453.39	0	0	guy	3	0.5	0	0	silence
48	22	female	8	Probraum	2.5	20	2	controlguy	ex	yellow.PNG	60	0	0	1	0	04/05/22:18:04:36.596781	2453.406	0	0	guy	3	0.5	0	0	silence
48	22	female	8	Probraum	2.5	20	2	controlguy	ex	yellow.PNG	60	0	0	1	0	04/05/22:18:04:36.613736	2453.421	0	0	guy	3	0.5	0	0	silence
48	22	female	8	Probraum	2.5	20	2	controlguy	ex	yellow.PNG	60	0	0	1	0	04/05/22:18:04:36.630691	2453.437	0	0	guy	3	0.5	0	0	silence
48	22	female	8	Probraum	2.5	20	2	controlguy	ex	yellow.PNG	60	0	0	1	0	04/05/22:18:04:36.647645	2453.453	0	0	guy	3	0.5	0	0	silence
48	22	female	8	Probraum	2.5	20	2	controlguy	ex	yellow.PNG	60	0	0	1	0	04/05/22:18:04:36.663603	2453.468	0	0	guy	3	0.5	0	0	silence
48	22	female	8	Probraum	2.5	20	2	controlguy	ex	yellow.PNG	60	0	0	1	0	04/05/22:18:04:36.680557	2453.484	0	0	guy	3	0.5	0	0	silence
48	22	female	8	Probraum	2.5	20	2	controlguy	ex	yellow.PNG	60	0	0	1	0	04/05/22:18:04:36.697511	2453.5	0	0	guy	3	0.5	0	0	silence
48	22	female	8	Probraum	2.5	20	2	controlguy	ex	yellow.PNG	60	0	0	1	0	04/05/22:18:04:36.713823	2453.515	0	0	guy	3	0.5	0	0	silence
48	22	female	8	Probraum	2.5	20	2	controlguy	ex	yellow.PNG	60	0	0	1	0	04/05/22:18:04:36.730424	2453.531	0	0	guy	3	0.5	0	0	silence
48	22	female	8	Probraum	2.5	20	2	controlguy	ex	yellow.PNG	60	0	0	1	0	04/05/22:18:04:36.746381	2453.546	0	0	guy	3	0.5	0	0	silence
48	22	female	8	Probraum	2.5	20	2	controlguy	ex	yellow.PNG	60	0	0	1	0	04/05/22:18:04:36.763336	2453.562	0	0	guy	3	0.5	0	0	silence
48	22	female	8	Probraum	2.5	20	2	controlguy	ex	yellow.PNG	60	0	0	1	0	04/05/22:18:04:36.781288	2453.593	0	0	guy	3	0.5	0	0	silence
48	22	female	8	Probraum	2.5	20	2	controlguy	ex	yellow.PNG	60	0	0	1	0	04/05/22:18:04:36.797245	2453.609	0	0	guy	3	0.5	0	0	silence
48	22	female	8	Probraum	2.5	20	2	controlguy	ex	yellow.PNG	60	0	0	1	0	04/05/22:18:04:36.813202	2453.625	0	0	guy	3	0.5	0	0	silence
48	22	female	8	Probraum	2.5	20	2	controlguy	ex	yellow.PNG	60	0	0	1	0	04/05/22:18:04:36.830523	2453.64	0	0	guy	3	0.5	0	0	silence
48	22	female	8	Probraum	2.5	20	2	controlguy	ex	yellow.PNG	60	0	0	1	0	04/05/22:18:04:36.847112	2453.656	0	0	guy	3	0.5	0	0	silence
48	22	female	8	Probraum	2.5	20	2	controlguy	ex	yellow.PNG	60	0	0	1	0	04/05/22:18:04:36.864067	2453.671	0	0	guy	3	0.5	0	0	silence
48	22	female	8	Probraum	2.5	20	2	controlguy	ex	yellow.PNG	60	0	0	1	0	04/05/22:18:04:36.881024	2453.687	0	0	guy	3	0.5	0	0	silence
48	22	female	8	Probraum	2.5	20	2	controlguy	ex	yellow.PNG	60	0	0	1	0	04/05/22:18:04:36.896978	2453.703	0	0	guy	3	0.5	0	0	silence
48	22	female	8	Probraum	2.5	20	2	controlguy	ex	yellow.PNG	60	0	0	1	0	04/05/22:18:04:36.913933	2453.718	0	0	guy	3	0.5	0	0	silence
48	22	female	8	Probraum	2.5	20	2	controlguy	ex	yellow.PNG	60	0	0	1	0	04/05/22:18:04:36.930889	2453.734	0	0	guy	3	0.5	0	0	silence
48	22	female	8	Probraum	2.5	20	2	controlguy	ex	yellow.PNG	60	0	0	1	0	04/05/22:18:04:36.946845	2453.75	0	0	guy	3	0.5	0	0	silence
48	22	female	8	Probraum	2.5	20	2	controlguy	ex	yellow.PNG	60	0	0	1	0	04/05/22:18:04:36.963800	2453.765	0	0	guy	3	0.5	0	0	silence
48	22	female	8	Probraum	2.5	20	2	controlguy	ex	yellow.PNG	60	0	0	1	0	04/05/22:18:04:36.980755	2453.781	0	0	guy	3	0.5	0	0	silence
48	22	female	8	Probraum	2.5	20	2	controlguy	ex	yellow.PNG	60	0	0	1	0	04/05/22:18:04:36.997709	2453.796	0	0	guy	3	0.5	0	0	silence
48	22	female	8	Probraum	2.5	20	2	controlguy	ex	yellow.PNG	60	0	0	1	0	04/05/22:18:04:37.013667	2453.828	0	0	guy	3	0.5	0	0	silence
48	22	female	8	Probraum	2.5	20	2	controlguy	ex	yellow.PNG	60	0	0	1	0	04/05/22:18:04:37.030622	2453.843	0	0	guy	3	0.5	0	0	silence
48	22	female	8	Probraum	2.5	20	2	controlguy	ex	yellow.PNG	60	0	0	1	0	04/05/22:18:04:37.047576	2453.859	0	0	guy	3	0.5	0	0	silence
48	22	female	8	Probraum	2.5	20	2	controlguy	ex	yellow.PNG	60	0	0	1	0	04/05/22:18:04:37.063884	2453.875	0	0	guy	3	0.5	0	0	silence
48	22	female	8	Probraum	2.5	20	2	controlguy	ex	yellow.PNG	60	0	0	1	0	04/05/22:18:04:37.080488	2453.89	0	0	guy	3	0.5	0	0	silence
48	22	female	8	Probraum	2.5	20	2	controlguy	ex	yellow.PNG	60	0	0	1	0	04/05/22:18:04:37.097443	2453.906	0	0	guy	3	0.5	0	0	silence
48	22	female	8	Probraum	2.5	20	2	controlguy	ex	yellow.PNG	60	0	0	1	0	04/05/22:18:04:37.113400	2453.921	0	0	guy	3	0.5	0	0	silence
48	22	female	8	Probraum	2.5	20	2	controlguy	ex	yellow.PNG	60	0	0	1	0	04/05/22:18:04:37.130354	2453.937	0	0	guy	3	0.5	0	0	silence
48	22	female	8	Probraum	2.5	20	2	controlguy	ex	yellow.PNG	60	0	0	1	0	04/05/22:18:04:37.147309	2453.953	0	0	guy	3	0.5	0	0	silence
48	22	female	8	Probraum	2.5	20	2	controlguy	ex	yellow.PNG	60	0	0	1	0	04/05/22:18:04:37.164264	2453.968	0	0	guy	3	0.5	0	0	silence
48	22	female	8	Probraum	2.5	20	2	controlguy	ex	yellow.PNG	60	0	0	1	0	04/05/22:18:04:37.180221	2453.984	0	0	guy	3	0.5	0	0	silence
48	22	female	8	Probraum	2.5	20	2	controlguy	ex	yellow.PNG	60	0	0	1	0	04/05/22:18:04:37.197176	2454.0	0	0	guy	3	0.5	0	0	silence
48	22	female	8	Probraum	2.5	20	2	controlguy	ex	yellow.PNG	60	0	0	1	0	04/05/22:18:04:37.214481	2454.015	0	0	guy	3	0.5	0	0	silence
48	22	female	8	Probraum	2.5	20	2	controlguy	ex	yellow.PNG	60	0	0	1	0	04/05/22:18:04:37.231085	2454.031	0	0	opp	3	0.5	0	0	silence
48	22	female	8	Probraum	2.5	20	2	controlguy	ex	yellow.PNG	60	0	0	1	0	04/05/22:18:04:37.247043	2454.046	0	0	opp	3	0.5	0	0	silence
48	22	female	8	Probraum	2.5	20	2	controlguy	ex	yellow.PNG	60	0	0	1	0	04/05/22:18:04:37.263997	2454.078	0	0	opp	3	0.5	0	0	silence
48	22	female	8	Probraum	2.5	20	2	controlguy	ex	yellow.PNG	60	0	0	1	0	04/05/22:18:04:37.280955	2454.093	0	0	opp	3	0.5	0	0	silence
48	22	female	8	Probraum	2.5	20	2	controlguy	ex	yellow.PNG	60	0	0	1	0	04/05/22:18:04:37.296909	2454.109	0	0	opp	3	0.5	0	0	silence
48	22	female	8	Probraum	2.5	20	2	controlguy	ex	yellow.PNG	60	0	0	1	0	04/05/22:18:04:37.313864	2454.125	0	0	opp	3	0.5	0	0	silence
48	22	female	8	Probraum	2.5	20	2	controlguy	ex	yellow.PNG	60	0	0	1	0	04/05/22:18:04:37.330819	2454.14	0	0	opp	3	0.5	0	0	silence
48	22	female	8	Probraum	2.5	20	2	controlguy	ex	yellow.PNG	60	0	0	1	0	04/05/22:18:04:37.347773	2454.156	0	0	opp	3	0.5	0	0	silence
48	22	female	8	Probraum	2.5	20	2	controlguy	ex	yellow.PNG	60	0	0	1	0	04/05/22:18:04:37.363731	2454.171	0	0	opp	3	0.5	0	0	silence
48	22	female	8	Probraum	2.5	20	2	controlguy	ex	yellow.PNG	60	0	0	1	0	04/05/22:18:04:37.380685	2454.187	0	0	opp	3	0.5	0	0	silence
48	22	female	8	Probraum	2.5	20	2	controlguy	ex	yellow.PNG	60	0	0	1	0	04/05/22:18:04:37.397640	2454.203	0	0	opp	3	0.5	0	0	silence
48	22	female	8	Probraum	2.5	20	2	controlguy	ex	yellow.PNG	60	0	0	1	0	04/05/22:18:04:37.413597	2454.218	0	0	opp	3	0.5	0	0	silence
48	22	female	8	Probraum	2.5	20	2	controlguy	ex	yellow.PNG	60	0	0	1	0	04/05/22:18:04:37.430552	2454.234	0	0	opp	3	0.5	0	0	silence
48	22	female	8	Probraum	2.5	20	2	controlguy	ex	yellow.PNG	60	0	0	1	0	04/05/22:18:04:37.447860	2454.25	0	0	opp	3	0.5	0	0	silence
48	22	female	8	Probraum	2.5	20	2	controlguy	ex	yellow.PNG	60	0	0	1	0	04/05/22:18:04:37.464461	2454.265	0	0	opp	3	0.5	0	0	silence
48	22	female	8	Probraum	2.5	20	2	controlguy	ex	yellow.PNG	60	0	0	1	0	04/05/22:18:04:37.480418	2454.281	0	0	opp	3	0.5	0	0	silence
48	22	female	8	Probraum	2.5	20	2	controlguy	ex	yellow.PNG	60	0	0	1	0	04/05/22:18:04:37.497373	2454.296	0	0	opp	3	0.5	0	0	silence
48	22	female	8	Probraum	2.5	20	2	controlguy	ex	yellow.PNG	60	0	0	1	0	04/05/22:18:04:37.514328	2454.328	0	0	opp	3	0.5	0	0	silence
48	22	female	8	Probraum	2.5	20	2	controlguy	ex	yellow.PNG	60	0	0	1	0	04/05/22:18:04:37.530285	2454.343	0	0	opp	3	0.5	0	0	silence
48	22	female	8	Probraum	2.5	20	2	controlguy	ex	yellow.PNG	60	0	0	1	0	04/05/22:18:04:37.547240	2454.359	0	0	opp	3	0.5	0	0	silence
48	22	female	8	Probraum	2.5	20	2	controlguy	ex	yellow.PNG	60	0	0	1	0	04/05/22:18:04:37.564549	2454.375	0	0	opp	3	0.5	0	0	silence
48	22	female	8	Probraum	2.5	20	2	controlguy	ex	yellow.PNG	60	0	0	1	0	04/05/22:18:04:37.581150	2454.39	0	0	opp	3	0.5	0	0	silence
48	22	female	8	Probraum	2.5	20	2	controlguy	ex	yellow.PNG	60	0	0	1	0	04/05/22:18:04:37.597107	2454.406	0	0	opp	3	0.5	0	0	silence
48	22	female	8	Probraum	2.5	20	2	controlguy	ex	yellow.PNG	60	0	0	1	0	04/05/22:18:04:37.614415	2454.421	0	0	opp	3	0.5	0	0	silence
48	22	female	8	Probraum	2.5	20	2	controlguy	ex	yellow.PNG	60	0	0	1	0	04/05/22:18:04:37.631017	2454.437	0	0	opp	3	0.5	0	0	silence
48	22	female	8	Probraum	2.5	20	2	controlguy	ex	yellow.PNG	60	0	0	1	0	04/05/22:18:04:37.646974	2454.453	0	0	opp	3	0.5	0	0	silence
48	22	female	8	Probraum	2.5	20	2	controlguy	ex	yellow.PNG	60	0	0	1	0	04/05/22:18:04:37.663928	2454.468	0	0	opp	3	0.5	0	0	silence
48	22	female	8	Probraum	2.5	20	2	controlguy	ex	yellow.PNG	60	0	0	1	0	04/05/22:18:04:37.679885	2454.484	0	0	opp	3	0.5	0	0	silence
48	22	female	8	Probraum	2.5	20	2	controlguy	ex	yellow.PNG	60	0	0	1	0	04/05/22:18:04:37.696840	2454.5	0	0	opp	3	0.5	0	0	silence
48	22	female	8	Probraum	2.5	20	2	controlguy	ex	yellow.PNG	60	0	0	1	0	04/05/22:18:04:37.713795	2454.515	0	0	opp	3	0.5	0	0	silence
48	22	female	8	Probraum	2.5	20	2	controlguy	ex	yellow.PNG	60	0	0	1	0	04/05/22:18:04:37.730749	2454.531	0	0	opp	3	0.5	0	0	silence
48	22	female	8	Probraum	2.5	20	2	controlguy	ex	yellow.PNG	60	0	0	1	0	04/05/22:18:04:37.747064	2454.546	0	C	follow up	3	0.5	0	0	silence
48	22	female	8	Probraum	2.5	20	2	phonemanbw	ex	black.PNG	60	0	0	1	0	04/05/22:18:04:42.850475	2459.656	0	0	onset	3	0.5	0	0	dot_startle
48	22	female	8	Probraum	2.5	20	2	phonemanbw	ex	black.PNG	60	0	0	1	0	04/05/22:18:04:42.967163	2459.781	0	0	anticipation	3	0.5	0	0	dot_startle
48	22	female	8	Probraum	2.5	20	2	phonemanbw	ex	black.PNG	60	0	0	1	0	04/05/22:18:04:42.967163	2459.781	0	0	anticipation	3	0.5	0	0	dot_startle
48	22	female	8	Probraum	2.5	20	2	phonemanbw	ex	black.PNG	60	0	0	1	0	04/05/22:18:04:44.470145	2461.281	0	0	dotstartle	3	0.5	0	0	dot_startle
48	22	female	8	Probraum	2.5	20	2	phonemanbw	ex	black.PNG	60	0	0	1	0	04/05/22:18:04:44.685570	2461.5	0	0	anticipation	3	0.5	0	0	dot_startle
48	22	female	8	Probraum	2.5	20	2	phonemanbw	ex	black.PNG	60	0	0	1	0	04/05/22:18:04:44.800262	2461.609	0	0	anticipation	3	0.5	0	0	dot_startle
48	22	female	8	Probraum	2.5	20	2	phonemanbw	ex	black.PNG	60	0	0	1	0	04/05/22:18:04:44.914955	2461.718	0	0	anticipation	3	0.5	0	0	dot_startle
48	22	female	8	Probraum	2.5	20	2	phonemanbw	ex	black.PNG	60	0	0	1	0	04/05/22:18:04:45.028651	2461.828	0	0	anticipation	3	0.5	0	0	dot_startle
48	22	female	8	Probraum	2.5	20	2	phonemanbw	ex	black.PNG	60	0	0	1	0	04/05/22:18:04:45.142347	2461.953	0	0	anticipation	3	0.5	0	0	dot_startle
48	22	female	8	Probraum	2.5	20	2	phonemanbw	ex	black.PNG	60	0	0	1	0	04/05/22:18:04:45.256043	2462.062	0	0	anticipation	3	0.5	0	0	dot_startle
48	22	female	8	Probraum	2.5	20	2	phonemanbw	ex	black.PNG	60	0	0	1	0	04/05/22:18:04:45.368742	2462.171	0	0	anticipation	3	0.5	0	0	dot_startle
48	22	female	8	Probraum	2.5	20	2	phonemanbw	ex	black.PNG	60	0	0	1	0	04/05/22:18:04:45.484433	2462.296	0	0	anticipation	3	0.5	0	0	dot_startle
48	22	female	8	Probraum	2.5	20	2	phonemanbw	ex	black.PNG	60	0	0	1	0	04/05/22:18:04:45.599126	2462.406	0	0	anticipation	3	0.5	0	0	dot_startle
48	22	female	8	Probraum	2.5	20	2	phonemanbw	ex	black.PNG	60	0	0	1	0	04/05/22:18:04:45.713819	2462.515	0	0	anticipation	3	0.5	0	0	dot_startle
48	22	female	8	Probraum	2.5	20	2	phonemanbw	ex	black.PNG	60	0	0	1	0	04/05/22:18:04:45.827518	2462.64	0	0	anticipation	3	0.5	0	0	dot_startle
48	22	female	8	Probraum	2.5	20	2	phonemanbw	ex	black.PNG	60	0	0	1	0	04/05/22:18:04:45.940214	2462.75	0	0	anticipation	3	0.5	0	0	dot_startle
48	22	female	8	Probraum	2.5	20	2	phonemanbw	ex	black.PNG	60	0	0	1	0	04/05/22:18:04:46.053910	2462.859	0	0	anticipation	3	0.5	0	0	dot_startle
48	22	female	8	Probraum	2.5	20	2	phonemanbw	ex	black.PNG	60	0	0	1	0	04/05/22:18:04:46.167606	2462.968	0	0	anticipation	3	0.5	0	0	dot_startle
48	22	female	8	Probraum	2.5	20	2	phonemanbw	ex	black.PNG	60	0	0	1	0	04/05/22:18:04:46.281304	2463.093	0	0	anticipation	3	0.5	0	0	dot_startle
48	22	female	8	Probraum	2.5	20	2	phonemanbw	ex	black.PNG	60	0	0	1	0	04/05/22:18:04:46.394998	2463.203	0	0	anticipation	3	0.5	0	0	dot_startle
48	22	female	8	Probraum	2.5	20	2	phonemanbw	ex	black.PNG	60	0	0	1	0	04/05/22:18:04:46.508694	2463.312	0	0	anticipation	3	0.5	0	0	dot_startle
48	22	female	8	Probraum	2.5	20	2	phonemanbw	ex	black.PNG	60	0	0	1	0	04/05/22:18:04:46.622390	2463.421	0	0	anticipation	3	0.5	0	0	dot_startle
48	22	female	8	Probraum	2.5	20	2	phonemanbw	ex	black.PNG	60	0	0	1	0	04/05/22:18:04:46.734091	2463.546	0	0	anticipation	3	0.5	0	0	dot_startle
48	22	female	8	Probraum	2.5	20	2	phonemanbw	ex	black.PNG	60	0	0	1	0	04/05/22:18:04:46.847789	2463.656	0	0	anticipation	3	0.5	0	0	dot_startle
48	22	female	8	Probraum	2.5	20	2	phonemanbw	ex	black.PNG	60	0	0	1	0	04/05/22:18:04:46.960488	2463.765	0	0	anticipation	3	0.5	0	0	dot_startle
48	22	female	8	Probraum	2.5	20	2	phonemanbw	ex	black.PNG	60	0	0	1	0	04/05/22:18:04:47.074182	2463.875	0	0	anticipation	3	0.5	0	0	dot_startle
48	22	female	8	Probraum	2.5	20	2	phonemanbw	ex	black.PNG	60	0	0	1	0	04/05/22:18:04:47.187878	2464.0	0	0	anticipation	3	0.5	0	0	dot_startle
48	22	female	8	Probraum	2.5	20	2	phonemanbw	ex	black.PNG	60	0	0	1	0	04/05/22:18:04:47.302574	2464.109	0	0	anticipation	3	0.5	0	0	dot_startle
48	22	female	8	Probraum	2.5	20	2	phonemanbw	ex	black.PNG	60	0	0	1	0	04/05/22:18:04:47.417265	2464.218	0	0	anticipation	3	0.5	0	0	dot_startle
48	22	female	8	Probraum	2.5	20	2	phonemanbw	ex	black.PNG	60	0	0	1	0	04/05/22:18:04:47.531958	2464.343	0	0	anticipation	3	0.5	0	0	dot_startle
48	22	female	8	Probraum	2.5	20	2	phonemanbw	ex	black.PNG	60	0	0	1	0	04/05/22:18:04:47.646651	2464.453	0	0	anticipation	3	0.5	0	0	dot_startle
48	22	female	8	Probraum	2.5	20	2	phonemanbw	ex	black.PNG	60	0	0	1	0	04/05/22:18:04:47.760347	2464.562	0	0	anticipation	3	0.5	0	0	dot_startle
48	22	female	8	Probraum	2.5	20	2	phonemanbw	ex	black.PNG	60	0	0	1	0	04/05/22:18:04:47.874043	2464.687	0	0	anticipation	3	0.5	0	0	dot_startle
48	22	female	8	Probraum	2.5	20	2	phonemanbw	ex	black.PNG	60	0	0	1	0	04/05/22:18:04:47.987739	2464.796	0	0	anticipation	3	0.5	0	0	dot_startle
48	22	female	8	Probraum	2.5	20	2	phonemanbw	ex	black.PNG	60	0	0	1	0	04/05/22:18:04:48.101435	2464.906	0	0	anticipation	3	0.5	0	0	dot_startle
48	22	female	8	Probraum	2.5	20	2	phonemanbw	ex	black.PNG	60	0	0	1	0	04/05/22:18:04:48.215133	2465.015	0	0	anticipation	3	0.5	0	0	dot_startle
48	22	female	8	Probraum	2.5	20	2	phonemanbw	ex	black.PNG	60	0	0	1	0	04/05/22:18:04:48.329824	2465.14	0	0	anticipation	3	0.5	0	0	dot_startle
48	22	female	8	Probraum	2.5	20	2	phonemanbw	ex	black.PNG	60	0	0	1	0	04/05/22:18:04:48.444518	2465.25	0	0	anticipation	3	0.5	0	0	dot_startle
48	22	female	8	Probraum	2.5	20	2	phonemanbw	ex	black.PNG	60	0	0	1	0	04/05/22:18:04:48.558214	2465.359	0	0	anticipation	3	0.5	0	0	dot_startle
48	22	female	8	Probraum	2.5	20	2	phonemanbw	ex	black.PNG	60	0	0	1	0	04/05/22:18:04:48.671913	2465.484	0	0	anticipation	3	0.5	0	0	dot_startle
48	22	female	8	Probraum	2.5	20	2	phonemanbw	ex	black.PNG	60	0	0	1	0	04/05/22:18:04:48.783614	2465.593	0	0	anticipation	3	0.5	0	0	dot_startle
48	22	female	8	Probraum	2.5	20	2	phonemanbw	ex	black.PNG	60	0	0	1	0	04/05/22:18:04:48.897311	2465.703	0	0	anticipation	3	0.5	0	0	dot_startle
48	22	female	8	Probraum	2.5	20	2	phonemanbw	ex	black.PNG	60	0	0	1	0	04/05/22:18:04:49.012003	2465.812	0	0	anticipation	3	0.5	0	0	dot_startle
48	22	female	8	Probraum	2.5	20	2	phonemanbw	ex	black.PNG	60	0	0	1	0	04/05/22:18:04:49.125697	2465.937	0	0	anticipation	3	0.5	0	0	dot_startle
48	22	female	8	Probraum	2.5	20	2	phonemanbw	ex	black.PNG	60	0	0	1	0	04/05/22:18:04:49.241390	2466.046	0	0	anticipation	3	0.5	0	0	dot_startle
48	22	female	8	Probraum	2.5	20	2	phonemanbw	ex	black.PNG	60	0	0	1	0	04/05/22:18:04:49.380017	2466.187	0	0	anticipation	3	0.5	0	0	dot_startle
48	22	female	8	Probraum	2.5	20	2	phonemanbw	ex	black.PNG	60	0	0	1	0	04/05/22:18:04:49.494712	2466.296	0	0	anticipation	3	0.5	0	0	dot_startle
48	22	female	8	Probraum	2.5	20	2	phonemanbw	ex	black.PNG	60	0	0	1	0	04/05/22:18:04:49.610403	2466.421	0	0	anticipation	3	0.5	0	0	dot_startle
48	22	female	8	Probraum	2.5	20	2	phonemanbw	ex	black.PNG	60	0	0	1	0	04/05/22:18:04:49.723099	2466.531	0	0	anticipation	3	0.5	0	0	dot_startle
48	22	female	8	Probraum	2.5	20	2	phonemanbw	ex	black.PNG	60	0	0	1	0	04/05/22:18:04:49.836796	2466.64	0	0	anticipation	3	0.5	0	0	dot_startle
48	22	female	8	Probraum	2.5	20	2	phonemanbw	ex	black.PNG	60	0	0	1	0	04/05/22:18:04:49.950492	2466.75	0	0	anticipation	3	0.5	0	0	dot_startle
48	22	female	8	Probraum	2.5	20	2	phonemanbw	ex	black.PNG	60	0	0	1	0	04/05/22:18:04:50.064187	2466.875	0	0	anticipation	3	0.5	0	0	dot_startle
48	22	female	8	Probraum	2.5	20	2	phonemanbw	ex	black.PNG	60	0	0	1	0	04/05/22:18:04:50.178881	2466.984	0	0	anticipation	3	0.5	0	0	dot_startle
48	22	female	8	Probraum	2.5	20	2	phonemanbw	ex	black.PNG	60	0	0	1	0	04/05/22:18:04:50.292577	2467.093	0	0	anticipation	3	0.5	0	0	dot_startle
48	22	female	8	Probraum	2.5	20	2	phonemanbw	ex	black.PNG	60	0	0	1	0	04/05/22:18:04:50.407270	2467.218	0	0	anticipation	3	0.5	0	0	dot_startle
